	Condition	CorrectSource	Stim_RT	category	Stim	OldNumber	Recognition_ACC	Recognition_RESP	Recognition_RT	Spatial_RESP	Spatial_RT
0	1	8	1.4869999999999999	OLD	vegie_carrot.bmp	Old78	1	1	2.214	8	2068
1	0	6	0.961	New	fruit_rasberry.bmp	New10	0	1	1.383	8	542
2	1	5	1.043	New	kitchen_fork_old.bmp	New18	1	2	2.327	8	542
3	1	5	0.8009999999999999	OLD	food_chocolatemilk.bmp	Old17	1	1	1.354	6	690
4	0	5	1.058	OLD	food_pickle01a.bmp	Old22	1	1	1.2209999999999999	5	531
5	0	6	0.7559999999999999	OLD	vegie_mushroom.bmp	Old76	1	1	1.3330000000000002	5	574
6	1	6	0.6579999999999999	OLD	animal_sheep.bmp	Old11	1	1	3.4539999999999997	6	563
7	1	5	0.91	New	food_walnut01c.bmp	New34	0	1	3.091	5	551
8	0	6	0.674	OLD	fruit_pineapple_old.bmp	Old70	1	1	2.456	8	629
9	1	9	1.129	OLD	animal_camel_new.bmp	Old01	1	1	1.515	8	581
10	0	9	0.629	New	sporting_golf ball.bmp	New19	1	2	2.173	8	581
11	1	6	1.814	OLD	kitchen_white strainer.bmp	Old38	0	2	7.66	8	581
12	0	9	0.754	OLD	sporting_hockey stick_old.bmp	Old58	1	1	2.211	6	858
13	0	5	0.703	New	kitchen_baking spatula.bmp	New01	1	2	1.574	6	858
14	1	8	0.9670000000000001	OLD	animal_penguin.bmp	Old10	1	1	2.678	5	650
15	1	9	0.956	OLD	musical_piano_old.bmp	Old48	1	1	1.175	5	591
16	1	5	1.2770000000000001	OLD	animal_chimpanzee.bmp	Old03	0	2	1.838	5	591
17	1	9	0.9990000000000001	OLD	sporting_rollerblade.bmp	Old62	1	1	1.188	6	875
18	1	5	1.341	OLD	sporting_Badminton Racquet.bmp	Old54	1	1	2.222	8	717
19	1	8	1.5530000000000002	OLD	vegie_garlic01a.bmp	Old74	1	1	1.255	5	443
20	1	8	0.857	New	animal_ostrich.bmp	New26	1	2	1.392	5	443
21	1	9	0.8109999999999999	New	musical_bagpipes.bmp	New35	1	2	1.815	5	443
22	1	8	0.976	OLD	animal_dalmation_old.bmp	Old04	1	1	0.973	6	773
23	1	5	1.26	OLD	kitchen_martini glass.bmp	Old32	1	1	1.117	6	607
24	0	8	0.733	OLD	vegie_green capsicum.bmp	Old75	1	1	1.157	6	614
25	1	8	1.881	New	animal_dolphin_old.bmp	New09	1	2	1.2919999999999998	6	614
26	1	8	1.0190000000000001	OLD	fruit_green grapes.bmp	Old68	1	1	0.8390000000000001	6	1244
27	1	5	0.8290000000000001	OLD	kitchen_plate.bmp	Old35	1	1	1.089	5	669
28	0	8	1.197	OLD	musical_accordion_old.bmp	Old41	1	1	0.809	9	1207
29	1	9	1.008	New	musical_zamponia windflute.bmp	New29	1	2	1.486	9	1207
30	1	9	1.781	OLD	vegie_radish.bmp	Old77	1	1	3.545	8	515
31	1	6	0.685	New	vegie_cucumber.bmp	New33	0	1	1.253	8	602
32	1	8	0.9209999999999999	OLD	food_shellpasta.bmp	Old25	1	1	1.409	5	431
33	1	8	1.219	OLD	vegie_cauliflower.bmp	Old72	1	1	0.9890000000000001	5	404
34	1	9	0.6579999999999999	OLD	animal_zebra_old.bmp	Old13	1	1	1.3219999999999998	6	587
35	1	5	1.044	New	sporting_windsurf.bmp	New31	1	2	1.4269999999999998	6	587
36	1	6	0.792	OLD	sporting_americanfootball.bmp	Old53	0	2	5.16	6	587
37	0	9	0.745	OLD	kitchen_big cooking pot.bmp	Old28	1	1	1.05	6	599
38	0	6	0.7170000000000001	New	food_drink.bmp	New05	1	2	1.358	6	599
39	0	6	0.847	OLD	Kitchen_apron.bmp	Old27	1	1	1.038	5	387
40	0	5	0.5579999999999999	OLD	sporting_footballhelmet.bmp	Old57	1	1	1.834	8	680
41	1	9	0.968	New	kitchen_kettle_new.bmp	New24	1	2	1.42	8	680
42	1	8	1.188	New	sporting_basketball_new.bmp	New14	0	1	1.082	5	517
43	0	9	0.6940000000000001	New	animal_pigeon.bmp	New32	1	2	1.048	5	517
44	1	6	0.726	OLD	fruit_blackberry_new.bmp	Old66	1	1	0.9490000000000001	8	518
45	1	6	1.472	New	animal_seal.bmp	New38	1	2	1.256	8	518
46	1	9	1.035	OLD	animal_farm pig.bmp	Old05	1	1	1.261	5	761
47	1	8	1.199	OLD	kitchen_pitcher.bmp	Old34	1	1	1.225	8	550
48	0	8	0.728	OLD	food_baguette01.bmp	Old14	1	1	1.319	6	1402
49	1	9	0.573	New	sporting_flippers.bmp	New02	1	2	1.56	6	1402
50	0	9	0.63	New	musical_bongo drum.bmp	New23	1	2	1.273	6	1402
51	0	8	0.6920000000000001	OLD	animal_parrot.bmp	Old09	1	1	1.5730000000000002	8	669
52	1	8	0.983	OLD	sporting_karate clothing.bmp	Old60	1	1	0.976	6	632
53	1	9	1.014	OLD	food_toast.bmp	Old26	1	1	0.79	8	605
54	1	6	0.762	New	musical_uculele_new.bmp	New39	0	1	1.795	9	762
55	0	5	0.6809999999999999	OLD	hard_musical_recorder.bmp	Old40	1	1	1.531	6	781
56	1	5	1.213	New	kitchen_ramekin.bmp	New13	1	2	1.524	6	781
57	1	6	1.2329999999999999	OLD	kitchen_cookie cutter.bmp	Old30	1	1	1.062	6	515
58	1	6	0.6459999999999999	OLD	food_croissant01.bmp	Old19	1	1	0.9009999999999999	6	544
59	1	8	1.341	OLD	sporting_skipping rope.bmp	Old63	1	1	1.185	9	585
60	1	9	1.3840000000000001	New	animal_giraffe.bmp	New03	1	2	5.928	9	585
61	0	5	0.672	New	kitchen_garlic press.bmp	New07	1	2	1.307	9	585
62	1	5	1.239	OLD	kitchen_tea cup and saucer.bmp	Old37	1	1	1.149	5	534
63	0	8	0.728	OLD	food_cracker02.bmp	Old18	1	1	0.888	9	627
64	0	9	0.627	OLD	fruit_lemon_new.bmp	Old69	1	1	1.7209999999999999	9	651
65	1	6	0.738	OLD	sporting_boxing_gloves.bmp	Old56	1	1	2.2319999999999998	6	622
66	0	8	0.595	OLD	food_softcheese.bmp	Old24	1	1	1.3230000000000002	9	533
67	1	9	0.644	OLD	animal_frog.bmp	Old06	1	1	1.255	9	563
68	1	6	0.899	New	sporting_baseball bat_new.bmp	New08	0	1	2.6189999999999998	5	890
69	1	9	0.981	OLD	musical_acoustic guitar_new.bmp	Old42	1	1	1.59	9	1405
70	1	6	0.9109999999999999	New	fruit_cherry.bmp	Old67	1	1	0.9790000000000001	9	475
71	1	8	1.43	OLD	food_candy.bmp	Old16	0	2	1.351	9	475
72	1	9	1.3940000000000001	New	food_pizza.bmp	New22	1	2	1.704	9	475
73	1	8	1.206	OLD	musical_triangle.bmp	Old49	1	1	1.162	8	531
74	0	9	1.4169999999999998	New	vegie_pumpkin.bmp	New21	1	2	3.596	8	531
75	1	9	0.9570000000000001	OLD	kitchen_coffee pot.bmp	Old29	1	1	4.763999999999999	5	573
76	0	6	0.7240000000000001	OLD	food_frenchfries.bmp	Old20	0	2	1.7169999999999999	5	573
77	1	5	1.102	OLD	musical_xylophone_old.bmp	Old52	1	1	0.968	9	664
78	1	8	1.2690000000000001	OLD	animal_cheetah.bmp	Old02	1	1	1.276	8	528
79	1	5	0.997	OLD	musical_drums_old.bmp	Old46	1	1	1.25	5	767
80	1	6	1.8030000000000002	OLD	musical_clarinet_new.bmp	Old44	1	1	1.2309999999999999	6	1149
81	0	6	0.759	New	animal_gorilla.bmp	New15	1	2	1.526	6	1149
82	1	5	1.409	OLD	sporting_fishing rod.bmp	Old59	1	1	1.208	8	511
83	1	6	1.7009999999999998	OLD	sporting_mini-trampoline.bmp	Old61	1	1	1.065	9	557
84	1	8	1.3769999999999998	New	animal_horse.bmp	New20	1	2	1.3259999999999998	9	557
85	0	6	0.706	OLD	kitchen_ladle.bmp	Old31	1	1	1.207	5	429
86	0	9	0.7879999999999999	OLD	musical_harp_new.bmp	Old43	1	1	1.6340000000000001	6	664
87	0	5	0.615	OLD	kitchen_scrubbing brush.bmp	Old36	1	1	2.373	9	677
88	1	5	1.209	New	sporting_weighlifting.bmp	New25	1	2	1.225	9	677
89	1	5	1.4769999999999999	OLD	food_pecan02.bmp	Old21	1	1	1.3259999999999998	5	496
90	0	8	0.828	OLD	musical_double bass.bmp	Old45	1	1	1.475	9	895
91	1	5	1.401	OLD	sporting_bicycle_old.bmp	Old55	0	2	4.21	9	895
92	1	9	1.121	New	musical_french horn_old.bmp	New12	0	1	1.514	9	492
93	0	9	0.723	New	fruit_apricot_new.bmp	New04	1	2	1.639	9	492
94	1	9	0.99	OLD	kitchen_wooden spoon_old.bmp	Old39	1	1	1.285	5	4456
95	1	5	1.536	New	kitchen_toaster_old.bmp	New30	1	2	1.534	5	4456
96	0	6	0.8009999999999999	OLD	animal_lion_new.bmp	Old07	0	2	3.2960000000000003	5	4456
97	0	5	0.723	OLD	animal_siamese cat.bmp	Old12	1	1	0.9640000000000001	9	659
98	1	8	1.482	OLD	vegie_corn02.bmp	Old73	1	1	1.304	8	1018
99	1	6	1.4569999999999999	OLD	sporting_soccer ball_new.bmp	Old65	1	1	1.032	5	518
100	0	5	1.015	OLD	musical_violin_old.bmp	Old51	1	1	1.296	9	1044
101	0	8	0.645	OLD	animal_monarch_old.bmp	Old08	1	1	2.681	6	1821
102	1	6	1.135	New	fruit_granny smith apple.bmp	New16	1	2	1.979	6	1821
103	1	5	0.639	New	food_bread.bmp	New28	1	2	3.883	6	1821
104	0	8	0.899	New	vegie_broccoli.bmp	New36	1	2	1.64	6	1821
105	0	6	0.609	OLD	fruit_watermelon_old.bmp	Old71	1	1	1.453	6	514
106	1	6	0.938	New	kitchen_spatula_old.bmp	New37	1	2	3.437	6	514
107	1	8	1.694	OLD	food_rawchicken.bmp	Old23	1	1	1.163	9	595
108	0	5	0.8240000000000001	OLD	musical_tuba.bmp	Old50	1	1	1.05	6	2151
109	0	8	0.6659999999999999	OLD	food_bottleofredwine01.bmp	Old15	1	1	1.112	9	658
110	1	9	1.268	New	vegie_snowpea01.bmp	New27	1	2	1.7109999999999999	9	658
111	1	8	1.125	New	food_cookie01.bmp	New11	0	1	2.641	8	999
112	0	9	0.698	New	food_bagel01.bmp	New17	1	2	1.4380000000000002	8	999
113	1	9	1.2670000000000001	New	musical_tambourine_new.bmp	New06	1	2	1.915	8	999
114	1	6	0.0	OLD	kitchen_peppermill.bmp	Old33	0	2	5.478	8	999
115	1	5	1.183	OLD	sporting_snow shoes_old.bmp	Old64	1	1	1.555	5	548
116	1	6	0.9540000000000001	OLD	musical_harmonica_new.bmp	Old47	1	1	1.045	8	642
