	Condition	CorrectSource	Stim_RT	category	Stim	OldNumber	Recognition_ACC	Recognition_RESP	Recognition_RT	Spatial_RESP	Spatial_RT
0	1	6	0.413	OLD	sporting_boxing_gloves.bmp	Old56	1	1	7.185	8	767
1	1	5	0.638	OLD	food_rawchicken.bmp	Old23	1	1	2.1319999999999997	6	933
2	1	6	0.6920000000000001	OLD	food_baguette01.bmp	Old14	1	1	3.011	9	3177
3	1	9	0.733	New	kitchen_fork_old.bmp	New18	1	2	2.215	9	3177
4	1	8	0.645	OLD	food_softcheese.bmp	Old24	0	2	3.82	9	3177
5	1	9	0.604	New	animal_giraffe.bmp	New03	1	2	1.6869999999999998	9	3177
6	1	8	0.915	OLD	vegie_corn02.bmp	Old73	0	2	2.9189999999999996	9	3177
7	0	8	0.415	OLD	kitchen_scrubbing brush.bmp	Old36	0	2	2.222	9	3177
8	0	5	0.615	OLD	sporting_karate clothing.bmp	Old60	1	1	1.6740000000000002	5	1749
9	1	6	0.395	New	vegie_broccoli.bmp	New36	1	2	5.82	5	1749
10	0	6	0.41600000000000004	New	vegie_pumpkin.bmp	New21	1	2	1.167	5	1749
11	1	5	0.667	OLD	animal_lion_new.bmp	Old07	0	2	3.845	5	1749
12	1	6	0.539	OLD	musical_harmonica_new.bmp	Old47	0	2	3.201	5	1749
13	0	8	0.688	OLD	sporting_fishing rod.bmp	Old59	1	1	1.636	5	546
14	1	6	0.428	OLD	food_chocolatemilk.bmp	Old17	1	1	1.618	9	680
15	1	8	0.43799999999999994	OLD	kitchen_big cooking pot.bmp	Old28	1	1	2.945	9	818
16	1	5	0.495	OLD	food_frenchfries.bmp	Old20	1	1	4.455	6	466
17	1	9	0.7340000000000001	OLD	sporting_rollerblade.bmp	Old62	1	1	1.886	6	1481
18	1	9	0.494	OLD	animal_camel_new.bmp	Old01	0	2	2.089	6	1481
19	1	5	0.621	OLD	kitchen_plate.bmp	Old35	1	1	1.8980000000000001	5	1757
20	1	5	0.655	OLD	musical_tuba.bmp	Old50	1	1	1.716	9	758
21	1	5	0.638	OLD	animal_sheep.bmp	Old11	1	1	1.556	6	1428
22	0	8	0.57	OLD	musical_harp_new.bmp	Old43	0	2	6.336	6	1428
23	0	5	0.588	OLD	animal_cheetah.bmp	Old02	0	2	1.4709999999999999	6	1428
24	1	8	0.569	OLD	kitchen_pitcher.bmp	Old34	1	1	3.5439999999999996	5	472
25	1	6	0.42	OLD	kitchen_cookie cutter.bmp	Old30	1	1	1.138	8	611
26	1	5	0.8540000000000001	OLD	fruit_watermelon_old.bmp	Old71	1	1	3.815	5	541
27	0	5	0.685	OLD	animal_farm pig.bmp	Old05	0	2	1.956	5	541
28	1	6	0.53	New	food_cookie01.bmp	New11	1	2	1.514	5	541
29	1	5	0.6920000000000001	New	animal_dolphin_old.bmp	New09	1	2	1.114	5	541
30	0	6	0.423	OLD	fruit_blackberry_new.bmp	Old66	1	1	1.682	8	2150
31	1	8	0.768	New	fruit_rasberry.bmp	New10	1	2	1.396	8	2150
32	1	5	0.898	OLD	musical_triangle.bmp	Old49	1	1	1.273	6	796
33	1	9	0.779	OLD	musical_clarinet_new.bmp	Old44	0	2	3.9610000000000003	6	796
34	1	8	0.6659999999999999	New	kitchen_garlic press.bmp	New07	1	2	1.264	6	796
35	1	9	0.652	New	kitchen_ramekin.bmp	New13	1	2	1.1640000000000001	6	796
36	1	8	0.622	OLD	animal_monarch_old.bmp	Old08	1	1	1.867	6	1103
37	1	6	1.264	OLD	musical_double bass.bmp	Old45	1	1	2.488	9	931
38	0	9	0.693	New	kitchen_baking spatula.bmp	New01	1	2	1.4169999999999998	9	931
39	0	8	0.518	OLD	animal_frog.bmp	Old06	1	1	1.294	5	1288
40	1	9	0.738	OLD	musical_acoustic guitar_new.bmp	Old42	1	1	2.121	9	3338
41	1	6	0.46	OLD	sporting_americanfootball.bmp	Old53	0	2	2.138	9	3338
42	1	9	0.6859999999999999	New	animal_gorilla.bmp	New15	1	2	1.794	9	3338
43	1	6	0.948	OLD	fruit_lemon_new.bmp	Old69	0	2	1.24	9	3338
44	0	5	0.599	OLD	kitchen_wooden spoon_old.bmp	Old39	1	1	1.41	6	776
45	1	5	0.721	New	sporting_baseball bat_new.bmp	New08	1	2	2.9010000000000002	6	776
46	1	9	0.6809999999999999	OLD	fruit_green grapes.bmp	Old68	0	2	1.5830000000000002	6	776
47	0	9	0.428	OLD	musical_xylophone_old.bmp	Old52	0	2	1.757	6	776
48	1	8	0.48700000000000004	New	sporting_flippers.bmp	New02	1	2	1.205	6	776
49	0	6	0.585	New	sporting_basketball_new.bmp	New14	1	2	3.6660000000000004	6	776
50	0	6	0.752	OLD	kitchen_tea cup and saucer.bmp	Old37	0	2	2.924	6	776
51	0	6	0.358	New	animal_horse.bmp	New20	1	2	1.051	6	776
52	0	9	0.69	OLD	musical_violin_old.bmp	Old51	1	1	2.575	8	590
53	1	6	0.46399999999999997	OLD	sporting_soccer ball_new.bmp	Old65	0	2	3.466	8	590
54	1	6	0.677	OLD	vegie_garlic01a.bmp	Old74	1	1	1.5319999999999998	8	597
55	1	5	0.6990000000000001	OLD	animal_zebra_old.bmp	Old13	1	1	1.722	6	571
56	1	6	0.644	OLD	food_pickle01a.bmp	Old22	1	1	1.328	5	633
57	1	9	0.6729999999999999	OLD	kitchen_ladle.bmp	Old31	1	1	2.31	5	2408
58	1	8	0.722	OLD	Kitchen_apron.bmp	Old27	1	1	2.372	6	1482
59	1	9	0.805	New	musical_tambourine_new.bmp	New06	1	2	2.125	6	1482
60	1	8	0.7040000000000001	New	sporting_golf ball.bmp	New19	1	2	1.429	6	1482
61	1	9	0.431	New	animal_seal.bmp	New38	1	2	0.848	6	1482
62	1	6	0.787	OLD	kitchen_martini glass.bmp	Old32	1	1	4.1080000000000005	6	774
63	1	6	0.43200000000000005	OLD	kitchen_coffee pot.bmp	Old29	0	2	1.788	6	774
64	1	8	0.433	OLD	food_bottleofredwine01.bmp	Old15	1	1	1.466	6	574
65	1	9	0.5820000000000001	OLD	food_pecan02.bmp	Old21	1	1	3.188	8	971
66	1	6	0.7140000000000001	New	food_drink.bmp	New05	1	2	2.073	8	971
67	0	8	0.434	OLD	food_croissant01.bmp	Old19	0	2	2.099	8	971
68	1	5	0.433	New	fruit_cherry.bmp	Old67	1	1	1.2690000000000001	9	601
69	0	9	0.597	New	vegie_snowpea01.bmp	New27	1	2	2.526	9	601
70	0	8	0.49	OLD	sporting_snow shoes_old.bmp	Old64	1	1	2.333	6	1614
71	0	5	0.435	New	musical_bongo drum.bmp	New23	1	2	1.859	6	1614
72	1	9	0.691	New	musical_bagpipes.bmp	New35	1	2	1.006	6	1614
73	1	8	0.436	OLD	sporting_skipping rope.bmp	Old63	1	1	1.53	6	595
74	1	8	0.6609999999999999	OLD	sporting_footballhelmet.bmp	Old57	1	1	3.713	5	2411
75	1	6	0.436	OLD	vegie_radish.bmp	Old77	1	1	1.271	9	1058
76	0	5	0.562	OLD	animal_dalmation_old.bmp	Old04	0	2	4.581	9	1058
77	1	9	0.887	OLD	musical_drums_old.bmp	Old46	1	1	1.804	6	2178
78	0	8	0.5489999999999999	OLD	animal_parrot.bmp	Old09	1	1	1.7830000000000001	6	613
79	1	9	0.478	OLD	hard_musical_recorder.bmp	Old40	0	2	2.251	6	613
80	0	9	0.684	New	fruit_apricot_new.bmp	New04	1	2	1.237	6	613
81	0	8	0.478	OLD	musical_piano_old.bmp	Old48	1	1	1.081	9	692
82	0	9	0.6	New	musical_zamponia windflute.bmp	New29	1	2	2.0780000000000003	9	692
83	0	5	0.524	New	kitchen_spatula_old.bmp	New37	1	2	1.44	9	692
84	1	5	0.439	New	fruit_granny smith apple.bmp	New16	1	2	1.3869999999999998	9	692
85	0	6	0.631	OLD	kitchen_white strainer.bmp	Old38	0	2	1.825	9	692
86	0	6	0.5920000000000001	New	vegie_cucumber.bmp	New33	0	1	1.4609999999999999	5	553
87	1	8	0.94	New	sporting_weighlifting.bmp	New25	1	2	1.151	5	553
88	0	9	0.5539999999999999	OLD	vegie_carrot.bmp	Old78	1	1	1.206	9	748
89	1	8	0.41100000000000003	OLD	vegie_green capsicum.bmp	Old75	0	2	2.515	9	748
90	1	5	0.67	OLD	sporting_bicycle_old.bmp	Old55	1	1	1.7409999999999999	9	1725
91	1	8	0.8029999999999999	OLD	kitchen_peppermill.bmp	Old33	0	2	2.165	9	1725
92	0	8	0.789	OLD	sporting_Badminton Racquet.bmp	Old54	0	2	1.2990000000000002	9	1725
93	1	9	0.711	OLD	sporting_mini-trampoline.bmp	Old61	1	1	1.524	5	404
94	1	8	0.614	OLD	animal_penguin.bmp	Old10	0	2	1.994	5	404
95	1	8	0.585	New	food_pizza.bmp	New22	1	2	2.079	5	404
96	0	8	0.444	OLD	food_candy.bmp	Old16	1	1	1.4580000000000002	5	462
97	0	5	0.48	OLD	animal_siamese cat.bmp	Old12	1	1	1.464	8	572
98	1	5	0.44299999999999995	OLD	food_shellpasta.bmp	Old25	1	1	2.0580000000000003	8	566
99	0	9	0.499	OLD	vegie_mushroom.bmp	Old76	1	1	2.5580000000000003	9	918
100	0	9	0.669	OLD	sporting_hockey stick_old.bmp	Old58	0	2	3.719	9	918
101	0	6	0.605	OLD	food_toast.bmp	Old26	1	1	2.0140000000000002	8	533
102	1	9	0.615	OLD	musical_accordion_old.bmp	Old41	1	1	1.3719999999999999	5	1612
103	0	6	0.653	New	food_bread.bmp	New28	1	2	2.225	5	1612
104	0	5	0.425	OLD	vegie_cauliflower.bmp	Old72	0	2	3.596	5	1612
105	0	6	0.514	New	musical_french horn_old.bmp	New12	1	2	1.466	5	1612
106	1	5	0.605	New	kitchen_toaster_old.bmp	New30	1	2	1.3330000000000002	5	1612
107	1	9	0.521	OLD	food_cracker02.bmp	Old18	1	1	1.3	5	583
108	1	8	0.604	New	animal_pigeon.bmp	New32	1	2	1.1740000000000002	5	583
109	1	6	0.46299999999999997	New	kitchen_kettle_new.bmp	New24	1	2	1.1059999999999999	5	583
110	1	9	0.9279999999999999	New	food_bagel01.bmp	New17	1	2	0.938	5	583
111	0	9	0.44799999999999995	New	food_walnut01c.bmp	New34	1	2	0.858	5	583
112	1	5	0.716	OLD	fruit_pineapple_old.bmp	Old70	1	1	1.429	6	634
113	1	6	0.5	New	sporting_windsurf.bmp	New31	1	2	2.5580000000000003	6	634
114	1	5	0.52	New	animal_ostrich.bmp	New26	1	2	1.1079999999999999	6	634
115	1	5	0.789	OLD	animal_chimpanzee.bmp	Old03	0	2	5.084	6	634
116	1	8	1.276	New	musical_uculele_new.bmp	New39	0	1	1.39	9	773
