,trialnumber,category,trialcode,oldnumber,correctsource,stim_resp,stim_rt,stim_acc,onset,fix_onset,fix_duration
0,1,enc,enc00,,8,2,1063,0,0.104,3.104,4.5
1,2,enc,enc000,,9,2,810,0,7.604,10.603,0.5
2,3,ctl,ctl0,,8,2,974,0,11.103,14.103,0.5
3,4,enc,enc01,old56,6,2,744,0,14.603,17.603,6.5
4,5,enc,enc02,old11,5,2,670,0,24.102,27.102,2
5,6,enc,enc03,old18,6,2,607,0,29.102,32.102,1.5
6,7,enc,enc04,old68,9,2,647,0,33.601,36.601,1
7,8,enc,enc05,old54,8,2,567,0,37.601,40.601,8.5
8,9,enc,enc06,old43,9,2,617,0,49.1,52.1,2
9,10,enc,enc07,old27,8,2,565,0,54.1,57.099,2.5
10,11,ctl,ctl01,,8,2,768,0,59.599,62.599,1.5
11,12,ctl,ctl02,,5,2,636,0,64.099,67.098,1.5
12,13,enc,enc08,old50,6,2,574,0,68.598,71.598,0.5
13,14,ctl,ctl03,,6,2,1036,0,72.098,75.098,0.5
14,15,enc,enc09,old21,5,2,604,0,75.598,78.597,2
15,16,enc,enc10,old32,6,2,612,0,80.597,83.597,1.5
16,17,ctl,ctl04,,8,2,943,0,85.097,88.097,2
17,18,enc,enc11,old01,6,2,537,0,90.096,93.096,7.5
18,19,enc,enc12,old23,8,2,495,0,100.595,103.595,5
19,20,enc,enc13,old71,5,2,575,0,108.595,111.594,1.5
20,21,enc,enc14,old14,9,2,621,0,113.094,116.094,3
21,22,enc,enc15,old38,9,2,628,0,119.094,122.093,1
22,23,enc,enc16,old30,5,2,619,0,123.093,126.093,1.5
23,24,enc,enc17,old26,5,2,551,0,127.593,130.593,8.5
24,25,enc,enc18,old13,5,2,574,0,139.092,142.092,2
25,26,ctl,ctl05,,8,2,647,0,144.092,147.091,1
26,27,ctl,ctl06,,5,2,619,0,148.091,151.091,1.5
27,28,enc,enc19,old52,8,2,580,0,152.591,155.59,6.5
28,29,enc,enc20,old66,6,2,616,0,162.09,165.09,1.5
29,30,enc,enc21,old61,5,2,663,0,166.589,169.589,6.5
30,31,ctl,ctl07,,5,2,618,0,176.089,179.088,3.5
31,32,enc,enc22,old72,6,2,597,0,182.588,185.588,8
32,33,enc,enc23,old08,5,2,636,0,193.587,196.587,13
33,34,ctl,ctl08,,6,2,666,0,209.586,212.585,1
34,35,enc,enc24,old06,8,2,721,0,213.585,216.585,2.5
35,36,enc,enc25,old47,5,2,675,0,219.085,222.085,1.5
36,37,enc,enc26,old58,9,2,741,0,223.584,226.584,3.5
37,38,enc,enc27,old42,8,2,649,0,230.084,233.084,2
38,39,enc,enc28,old17,9,2,792,0,235.083,238.083,3
39,40,enc,enc29,old31,8,2,630,0,241.083,244.083,7
40,41,enc,enc30,old59,6,2,801,0,251.082,254.082,1
41,42,ctl,ctl09,,9,2,563,0,255.082,258.081,0.5
42,43,ctl,ctl10,,8,2,660,0,258.581,261.581,1
43,44,enc,enc31,old02,9,2,483,0,262.581,265.581,0.5
44,45,enc,enc32,old74,6,2,544,0,266.081,269.08,7
45,46,enc,enc33,old19,9,2,595,0,276.08,279.079,4
46,47,enc,enc34,old24,6,2,644,0,283.079,286.079,2
47,48,ctl,ctl11,,5,2,690,0,288.079,291.078,2.5
48,49,enc,enc35,old70,5,2,604,0,293.578,296.578,4.5
49,50,enc,enc36,old04,9,2,621,0,301.077,304.077,0.5
50,51,ctl,ctl12,,9,2,743,0,304.577,307.577,3
51,52,enc,enc37,old03,8,2,566,0,310.577,313.576,2
52,53,ctl,ctl13,,6,2,504,0,315.576,318.576,0.5
53,54,ctl,ctl14,,6,2,647,0,319.076,322.076,1
54,55,ctl,ctl15,,6,2,581,0,323.075,326.075,2.5
55,56,ctl,ctl16,,9,2,626,0,328.575,331.575,6.5
56,57,enc,enc38,old51,6,2,533,0,338.074,341.074,9.5
57,58,enc,enc39,old64,6,2,648,0,350.573,353.573,3
58,59,enc,enc40,old62,5,2,664,0,356.573,359.572,3
59,60,enc,enc41,old78,6,2,707,0,362.572,365.572,1
60,61,enc,enc42,old53,9,2,625,0,366.572,369.571,2
61,62,enc,enc43,old15,8,2,836,0,371.571,374.571,1
62,63,enc,enc44,old28,9,2,616,0,375.571,378.571,0.5
63,64,enc,enc45,old20,8,2,671,0,379.07,382.07,2.5
64,65,enc,enc46,old36,9,,0,1,384.57,387.57,8.5
65,66,enc,enc47,old35,6,2,649,0,396.069,399.069,5.5
66,67,enc,enc48,old10,6,2,604,0,404.568,407.568,2
67,68,enc,enc49,old41,8,2,623,0,409.568,412.567,6
68,69,enc,enc50,old45,9,2,646,0,418.567,421.567,6
69,70,enc,enc51,old05,6,,0,1,427.566,430.566,1.5
70,71,ctl,ctl17,,8,,0,1,432.066,435.065,2
71,72,enc,enc52,old49,5,2,2826,0,437.065,440.065,1.5
72,73,ctl,ctl18,,9,2,585,0,441.565,444.565,4
73,74,ctl,ctl19,,8,2,645,0,448.564,451.564,0.5
74,75,ctl,ctl20,,5,2,674,0,452.064,455.064,6
75,76,enc,enc53,old55,9,2,534,0,461.063,464.063,0.5
76,77,enc,enc54,old48,8,2,532,0,464.563,467.563,2.5
77,78,enc,enc55,old60,8,2,488,0,470.062,473.062,1.5
78,79,enc,enc56,old34,6,2,540,0,474.562,477.562,2.5
79,80,ctl,ctl21,,5,2,459,0,480.061,483.061,5.5
80,81,enc,enc57,old63,9,2,556,0,488.561,491.56,4.5
81,82,ctl,ctl22,,8,2,503,0,496.06,499.06,2.5
82,83,enc,enc58,old76,9,2,509,0,501.559,504.559,6.5
83,84,ctl,ctl23,,9,2,574,0,511.059,514.058,6.5
84,85,ctl,ctl24,,8,2,477,0,520.558,523.558,1.5
85,86,ctl,ctl25,,9,2,495,0,525.057,528.057,4.5
86,87,ctl,ctl26,,5,2,420,0,532.557,535.556,1.5
87,88,enc,enc59,old65,5,2,379,0,537.056,540.056,0.5
88,89,ctl,ctl27,,6,2,444,0,540.556,543.556,10.5
89,90,ctl,ctl28,,6,2,474,0,554.055,557.055,4.5
90,91,enc,enc60,old57,8,2,432,0,561.554,564.554,2
91,92,ctl,ctl29,,9,2,402,0,566.554,569.553,1.5
92,93,enc,enc61,old09,8,2,366,0,571.053,574.053,12.5
93,94,enc,enc62,old29,5,2,486,0,586.552,589.552,2
94,95,enc,enc63,old77,8,2,405,0,591.551,594.551,1
95,96,ctl,ctl30,,8,2,524,0,595.551,598.551,4
96,97,enc,enc64,old69,9,2,516,0,602.55,605.55,0.5
97,98,enc,enc65,old73,8,2,417,0,606.05,609.05,4
98,99,enc,enc66,old67,8,2,456,0,613.05,616.049,3.5
99,100,ctl,ctl31,,8,2,385,0,619.549,622.549,1
100,101,ctl,ctl32,,5,2,490,0,623.549,626.548,0.5
101,102,enc,enc67,old12,5,2,449,0,627.048,630.048,2.5
102,103,ctl,ctl33,,9,2,430,0,632.548,635.548,0.5
103,104,ctl,ctl34,,9,2,761,0,636.047,639.047,9
104,105,ctl,ctl35,,6,2,738,0,648.046,651.046,2
105,106,enc,enc68,old07,9,2,717,0,653.046,656.046,0.5
106,107,ctl,ctl36,,6,2,519,0,656.546,659.545,2
107,108,ctl,ctl37,,5,2,552,0,661.545,664.545,4.5
108,109,ctl,ctl38,,6,2,382,0,669.045,672.044,4.5
109,110,enc,enc69,old39,5,2,593,0,676.544,679.544,3.5
110,111,enc,enc70,old46,9,2,446,0,683.043,686.043,1.5
111,112,enc,enc71,old33,8,2,433,0,687.543,690.543,4.5
112,113,enc,enc72,old25,6,2,491,0,695.042,698.042,0.5
113,114,enc,enc73,old75,9,2,469,0,698.542,701.542,0.5
114,115,ctl,ctl39,,9,2,553,0,702.042,705.041,5
115,116,enc,enc74,old40,5,2,516,0,710.041,713.041,4.5
116,117,enc,enc75,old44,6,,0,1,717.54,720.54,5.5
117,118,enc,enc76,old22,5,2,454,0,726.039,729.039,1
118,119,enc,enc77,old37,5,2,536,0,730.039,733.039,0.5
119,120,enc,enc78,old16,8,2,469,0,733.539,736.538,13.5
