trialnumber	category	trialcode	oldnumber	correctsource	stim_resp	stim_rt	stim_acc	stim_onset	fix_onset	duration
1	ctl	ctl0	nan	9	2	1933	0	5.099	8.099	3
2	enc	enc00	nan	5	2	2396	0	11.099	14.099	2
3	enc	enc000	nan	9	2	1311	0	16.099	19.098	1
4	ctl	ctl01	nan	6	2	1205	0	20.098	23.098	8
5	enc	enc01	old54	8	2	1139	0	31.097	34.097	7.5
6	enc	enc02	old01	5	2	1770	0	41.597	44.596	0.5
7	enc	enc03	old59	5	2	1881	0	45.096	48.096	6
8	enc	enc04	old42	6	2	2393	0	54.096	57.095	2
9	enc	enc05	old46	5	2	1957	0	59.095	62.095	2
10	enc	enc06	old78	9	2	1960	0	64.095	67.095	4
11	ctl	ctl02	nan	5	nan	0	1	71.094	74.094	2.5
12	ctl	ctl03	nan	6	2	1603	0	76.594	79.594	1.5
13	ctl	ctl04	nan	6	2	1611	0	81.093	84.093	5
14	ctl	ctl05	nan	9	2	1572	0	89.093	92.093	1
15	enc	enc07	old55	6	2	2774	0	93.092	96.092	3
16	enc	enc08	old09	8	2	2233	0	99.092	102.092	3
17	ctl	ctl06	nan	9	2	1114	0	105.092	108.091	2.5
18	enc	enc09	old40	9	2	2350	0	110.591	113.591	6.5
19	enc	enc10	old04	5	2	1985	0	120.09	123.09	2.5
20	enc	enc11	old36	9	2	1957	0	125.59	128.59	2
21	enc	enc12	old39	5	2	1408	0	130.59	133.589	4.5
22	enc	enc13	old68	8	2	2257	0	138.089	141.089	4.5
23	enc	enc14	old67	8	2	1592	0	145.588	148.588	2.5
24	enc	enc15	old72	9	2	2267	0	151.088	154.088	1
25	enc	enc16	old73	8	2	2685	0	155.088	158.087	1.5
26	enc	enc17	old03	5	2	2548	0	159.587	162.587	4
27	ctl	ctl07	nan	5	2	1367	0	166.587	169.587	3
28	ctl	ctl08	nan	8	2	1116	0	172.586	175.586	1
29	enc	enc18	old38	8	2	1600	0	176.586	179.586	1
30	enc	enc19	old20	8	2	1659	0	180.586	183.585	0.5
31	enc	enc20	old18	5	2	2040	0	184.085	187.085	3.5
32	enc	enc21	old76	9	2	2085	0	190.585	193.585	4.5
33	enc	enc22	old15	9	2	2049	0	198.084	201.084	9.5
34	ctl	ctl09	nan	8	2	913	0	210.583	213.583	3.5
35	enc	enc23	old12	6	2	1548	0	217.083	220.083	4
36	ctl	ctl10	nan	9	2	801	0	224.082	227.082	4
37	enc	enc24	old19	8	2	1500	0	231.082	234.081	1
38	enc	enc25	old50	8	2	1679	0	235.081	238.081	6
39	enc	enc26	old24	9	2	2009	0	244.081	247.08	6.5
40	enc	enc27	old49	5	2	1512	0	253.58	256.58	2
41	enc	enc28	old32	6	2	1552	0	258.58	261.579	1.5
42	enc	enc29	old51	9	2	2132	0	263.079	266.079	2.5
43	enc	enc30	old44	8	2	1812	0	268.579	271.579	4.5
44	enc	enc31	old33	6	2	1832	0	276.078	279.078	0.5
45	enc	enc32	old11	6	2	1937	0	279.578	282.578	1
46	ctl	ctl11	nan	6	2	1506	0	283.578	286.577	1.5
47	enc	enc33	old10	9	2	1877	0	288.077	291.077	2
48	enc	enc34	old64	8	2	1806	0	293.077	296.077	4
49	ctl	ctl12	nan	6	2	1008	0	300.076	303.076	2
50	enc	enc35	old13	9	2	1513	0	305.076	308.076	2.5
51	enc	enc36	old56	8	2	1849	0	310.575	313.575	2
52	enc	enc37	old26	9	2	1668	0	315.575	318.575	14.5
53	enc	enc38	old66	6	2	2595	0	333.074	336.073	4
54	enc	enc39	old21	5	2	2299	0	340.073	343.073	1.5
55	ctl	ctl13	nan	5	2	895	0	344.573	347.573	1
56	enc	enc40	old25	6	2	1980	0	348.572	351.572	3
57	ctl	ctl14	nan	9	2	1095	0	354.572	357.572	5.5
58	ctl	ctl15	nan	8	2	651	0	363.071	366.071	2
59	ctl	ctl16	nan	9	2	1300	0	368.071	371.071	2.5
60	enc	enc41	old47	6	2	1856	0	373.571	376.57	3
61	enc	enc42	old28	8	2	1209	0	379.57	382.57	3
62	enc	enc43	old35	9	2	1032	0	385.57	388.569	2
63	enc	enc44	old69	5	2	1533	0	390.569	393.569	5
64	enc	enc45	old62	6	2	1478	0	398.569	401.568	4.5
65	enc	enc46	old63	9	2	1462	0	406.068	409.068	10.5
66	ctl	ctl17	nan	8	2	771	0	419.567	422.567	2.5
67	enc	enc47	old71	6	2	736	0	425.066	428.066	2.5
68	enc	enc48	old27	9	2	1850	0	430.566	433.566	6
69	ctl	ctl18	nan	5	2	868	0	439.565	442.565	3.5
70	ctl	ctl19	nan	5	2	669	0	446.065	449.065	1.5
71	enc	enc49	old23	6	2	1951	0	450.565	453.564	2.5
72	ctl	ctl20	nan	8	2	1046	0	456.064	459.064	4
73	ctl	ctl21	nan	9	2	863	0	463.064	466.063	2
74	enc	enc50	old05	8	2	2311	0	468.063	471.063	3
75	enc	enc51	old58	9	2	1995	0	474.063	477.062	3
76	ctl	ctl22	nan	8	2	764	0	480.062	483.062	4
77	enc	enc52	old48	8	2	1095	0	487.062	490.061	0.5
78	enc	enc53	old16	9	2	1108	0	490.561	493.561	8
79	ctl	ctl23	nan	9	2	935	0	501.561	504.56	3
80	ctl	ctl24	nan	6	2	2385	0	507.56	510.56	0.5
81	enc	enc54	old41	5	2	2104	0	511.06	514.06	1.5
82	enc	enc55	old34	8	2	1999	0	515.559	518.559	4
83	enc	enc56	old37	5	2	1287	0	522.559	525.559	5
84	ctl	ctl25	nan	6	2	882	0	530.558	533.558	7.5
85	enc	enc57	old70	6	2	2184	0	541.057	544.057	1
86	ctl	ctl26	nan	6	2	1433	0	545.057	548.057	1.5
87	ctl	ctl27	nan	9	2	2064	0	549.557	552.557	0.5
88	enc	enc58	old14	5	2	2930	0	553.056	556.056	1.5
89	enc	enc59	old74	6	2	1386	0	557.556	560.556	2
90	enc	enc60	old52	8	2	1759	0	562.556	565.555	1
91	ctl	ctl28	nan	5	2	838	0	566.555	569.555	5
92	ctl	ctl29	nan	8	2	777	0	574.555	577.555	2
93	ctl	ctl30	nan	9	2	676	0	579.554	582.554	5.5
94	ctl	ctl31	nan	6	2	948	0	588.054	591.053	0.5
95	enc	enc61	old29	5	2	1275	0	591.553	594.553	8
96	ctl	ctl32	nan	5	2	999	0	602.553	605.552	1
97	enc	enc62	old65	5	2	879	0	606.552	609.552	0.5
98	ctl	ctl33	nan	5	2	942	0	610.052	613.052	3.5
99	enc	enc63	old02	5	2	2650	0	616.551	619.551	1.5
100	enc	enc64	old08	9	2	1453	0	621.051	624.051	2.5
101	enc	enc65	old60	9	2	1114	0	626.551	629.55	9.5
102	enc	enc66	old75	5	2	1217	0	639.05	642.049	0.5
103	enc	enc67	old57	8	2	834	0	642.549	645.549	1
104	ctl	ctl34	nan	8	2	959	0	646.549	649.549	3
105	enc	enc68	old31	6	2	1358	0	652.549	655.548	1
106	enc	enc69	old07	6	2	1025	0	656.548	659.548	2
107	ctl	ctl35	nan	8	2	1033	0	661.548	664.548	0.5
108	ctl	ctl36	nan	6	2	811	0	665.048	668.047	2
109	enc	enc70	old61	5	2	1379	0	670.047	673.047	8.5
110	ctl	ctl37	nan	5	2	912	0	681.546	684.546	1.5
111	enc	enc71	old43	6	2	1409	0	686.046	689.046	1
112	enc	enc72	old06	8	2	1170	0	690.046	693.046	1
113	enc	enc73	old45	9	2	1870	0	694.045	697.045	4
114	enc	enc74	old17	8	2	1926	0	701.045	704.045	9.5
115	enc	enc75	old77	9	2	1373	0	713.544	716.544	4.5
116	ctl	ctl38	nan	8	2	808	0	721.043	724.043	0.5
117	ctl	ctl39	nan	9	2	957	0	724.543	727.543	4
118	enc	enc76	old53	6	2	1129	0	731.542	734.542	1
119	enc	enc77	old30	5	2	1566	0	735.542	738.542	11.5
120	enc	enc78	old22	6	2	1165	0			
