,trialnumber,category,trialcode,oldnumber,correctsource,stim_resp,stim_rt,stim_acc,onset,fix_onset,fix_duration
0,1,enc,enc00,,5,1,2609,0,0.015,3.024,7
1,2,enc,enc000,,9,,0,1,10.011,13.02,4.5
2,3,ctl,ctl0,,9,1,1770,0,17.517,20.526,4.5
3,4,enc,enc01,old60,8,,0,1,25.023,28.032,0.5
4,5,ctl,ctl01,,6,1,1154,0,28.533,31.542,0.5
5,6,enc,enc02,old03,5,1,2059,0,32.044,35.053,4.5
6,7,enc,enc03,old53,5,1,1778,0,39.549,42.558,2
7,8,ctl,ctl02,,5,1,947,0,44.548,47.557,3.5
8,9,ctl,ctl03,,6,1,1549,0,51.05,54.059,1.5
9,10,enc,enc04,old66,6,,0,1,55.547,58.556,2.5
10,11,enc,enc05,old77,5,1,1487,0,61.047,64.056,1
11,12,ctl,ctl04,,6,,0,1,65.059,68.068,3
12,13,enc,enc06,old41,9,1,1882,0,71.06,74.069,4
13,14,ctl,ctl05,,9,1,1206,0,78.064,81.073,0.5
14,15,enc,enc07,old55,6,1,1679,0,81.575,84.584,2.5
15,16,ctl,ctl06,,9,1,1251,0,87.075,90.084,2.5
16,17,ctl,ctl07,,5,1,1575,0,92.574,95.583,3.5
17,18,enc,enc08,old07,8,1,1672,0,99.077,102.086,1
18,19,enc,enc09,old70,9,1,2381,0,103.072,106.081,2
19,20,enc,enc10,old12,5,1,2926,0,108.071,111.08,0.5
20,21,enc,enc11,old34,9,1,2160,0,111.581,114.59,4.5
21,22,enc,enc12,old39,5,1,1566,0,119.087,122.096,7
22,23,enc,enc13,old42,8,1,1425,0,129.084,132.093,0.5
23,24,enc,enc14,old46,8,1,2306,0,132.594,135.603,2
24,25,enc,enc15,old50,9,1,1612,0,137.592,140.601,1
25,26,enc,enc16,old44,8,1,1568,0,141.588,144.597,1
26,27,enc,enc17,old01,5,1,2172,0,145.6,148.609,3.5
27,28,ctl,ctl08,,8,1,910,0,152.102,155.111,1
28,29,enc,enc18,old27,8,1,1986,0,156.098,159.107,2
29,30,enc,enc19,old25,8,1,2348,0,161.096,164.105,0.5
30,31,enc,enc20,old15,5,1,2582,0,164.606,167.615,3.5
31,32,ctl,ctl09,,8,1,1383,0,171.109,174.118,7
32,33,enc,enc21,old48,9,1,1441,0,181.106,184.115,2.5
33,34,enc,enc22,old18,9,1,2342,0,186.605,189.614,5
34,35,enc,enc23,old05,6,1,1902,0,194.613,197.622,1
35,36,enc,enc24,old19,8,1,2706,0,198.625,201.634,10
36,37,enc,enc25,old72,8,1,1764,0,211.63,214.639,1.5
37,38,enc,enc26,old16,9,1,1947,0,216.127,219.136,0.5
38,39,enc,enc27,old78,5,1,1997,0,219.637,222.646,2.5
39,40,enc,enc28,old36,6,1,2057,0,225.137,228.146,3.5
40,41,ctl,ctl10,,9,1,754,0,231.64,234.649,1
41,42,ctl,ctl11,,6,1,774,0,235.652,238.661,0.5
42,43,ctl,ctl12,,6,1,1176,0,239.162,242.171,1.5
43,44,ctl,ctl13,,5,1,639,0,243.659,246.668,7
44,45,enc,enc29,old75,9,1,2297,0,253.656,256.665,7
45,46,enc,enc30,old76,8,1,1605,0,263.652,266.661,2
46,47,ctl,ctl14,,9,,0,1,268.651,271.66,6.5
47,48,enc,enc31,old30,6,1,1735,0,278.162,281.171,3.5
48,49,enc,enc32,old04,6,1,1560,0,284.665,287.674,2.5
49,50,enc,enc33,old08,9,1,1964,0,290.165,293.174,4
50,51,enc,enc34,old61,8,1,1735,0,297.169,300.178,3.5
51,52,ctl,ctl15,,8,,0,1,303.672,306.681,1
52,53,enc,enc35,old09,9,1,1732,0,307.684,310.693,6.5
53,54,ctl,ctl16,,9,1,876,0,317.196,320.205,7.5
54,55,ctl,ctl17,,8,1,1210,0,327.694,330.703,2.5
55,56,enc,enc36,old64,8,1,2334,0,333.193,336.202,1.5
56,57,enc,enc37,old20,9,1,1989,0,337.69,340.699,1
57,58,enc,enc38,old43,6,1,2698,0,341.685,344.694,3
58,59,ctl,ctl18,,5,1,1016,0,347.687,350.696,2.5
59,60,enc,enc39,old14,5,1,1548,0,353.187,356.195,1
60,61,enc,enc40,old23,6,1,2817,0,357.198,360.207,9
61,62,enc,enc41,old67,6,1,2294,0,369.201,372.21,1.5
62,63,enc,enc42,old28,8,1,2820,0,373.698,376.707,8.5
63,64,enc,enc43,old37,9,1,1855,0,385.199,388.208,8
64,65,ctl,ctl19,,5,1,800,0,396.198,399.207,1.5
65,66,enc,enc44,old40,5,1,2815,0,400.695,403.704,5
66,67,ctl,ctl20,,8,1,1088,0,408.702,411.711,1
67,68,ctl,ctl21,,9,1,795,0,412.698,415.707,3
68,69,enc,enc45,old59,6,1,1962,0,418.699,421.708,5
69,70,ctl,ctl22,,8,1,763,0,426.706,429.715,0.5
70,71,enc,enc46,old56,9,1,2196,0,430.217,433.226,1.5
71,72,enc,enc47,old45,6,1,1420,0,434.713,437.722,0.5
72,73,enc,enc48,old33,9,1,2149,0,438.224,441.233,2
73,74,enc,enc49,old17,6,1,2263,0,443.222,446.231,1.5
74,75,enc,enc50,old02,8,1,1846,0,447.719,450.728,1
75,76,enc,enc51,old57,9,1,1561,0,451.731,454.74,2.5
76,77,enc,enc52,old73,8,1,1765,0,457.231,460.24,5.5
77,78,ctl,ctl23,,9,1,769,0,465.739,468.748,2.5
78,79,enc,enc53,old26,9,1,1805,0,471.239,474.248,1.5
79,80,ctl,ctl24,,6,1,988,0,475.736,478.745,0.5
80,81,enc,enc54,old68,5,1,2261,0,479.247,482.256,3
81,82,enc,enc55,old35,8,1,2492,0,485.248,488.257,3.5
82,83,enc,enc56,old32,5,1,2588,0,491.751,494.76,7.5
83,84,enc,enc57,old47,6,1,2090,0,502.249,505.258,2.5
84,85,ctl,ctl25,,6,,0,1,507.748,510.757,0.5
85,86,enc,enc58,old24,5,1,2888,0,511.259,514.268,1
86,87,enc,enc59,old52,6,1,2780,0,515.271,518.28,4
87,88,enc,enc60,old69,8,1,2488,0,522.275,525.284,11.5
88,89,ctl,ctl26,,6,1,1049,0,536.785,539.794,0.5
89,90,ctl,ctl27,,9,1,898,0,540.296,543.305,4
90,91,ctl,ctl28,,5,1,774,0,547.3,550.309,0.5
91,92,enc,enc61,old31,5,1,2512,0,550.81,553.819,2.5
92,93,enc,enc62,old58,5,1,1772,0,556.31,559.319,3
93,94,ctl,ctl29,,8,1,2091,0,562.311,565.32,1
94,95,enc,enc63,old10,5,1,2399,0,566.307,569.316,2
95,96,enc,enc64,old13,9,1,2944,0,571.305,574.314,0.5
96,97,ctl,ctl30,,9,1,1378,0,574.815,577.824,7
97,98,enc,enc65,old63,9,1,2453,0,584.812,587.821,0.5
98,99,enc,enc66,old49,5,1,2239,0,588.322,591.331,0.5
99,100,ctl,ctl31,,6,,0,1,591.833,594.842,0.5
100,101,ctl,ctl32,,5,1,690,0,595.343,598.352,1.5
101,102,enc,enc67,old62,8,1,1913,0,599.84,602.849,3
102,103,enc,enc68,old38,6,1,1368,0,605.841,608.85,1.5
103,104,ctl,ctl33,,5,1,1894,0,610.338,613.347,4.5
104,105,ctl,ctl34,,8,1,804,0,617.844,620.853,0.5
105,106,enc,enc69,old11,6,1,1950,0,621.354,624.363,8
106,107,enc,enc70,old65,5,1,1814,0,632.354,635.363,1
107,108,ctl,ctl35,,8,1,786,0,636.366,639.375,4.5
108,109,ctl,ctl36,,6,1,680,0,643.872,646.881,2
109,110,enc,enc71,old71,6,1,2234,0,648.87,651.879,1
110,111,enc,enc72,old06,8,1,2133,0,652.882,655.891,2
111,112,ctl,ctl37,,5,1,1399,0,657.88,660.889,2
112,113,ctl,ctl38,,8,1,728,0,662.879,665.888,10
113,114,enc,enc73,old74,9,1,1819,0,675.884,678.893,3.5
114,115,enc,enc74,old21,8,1,2684,0,682.387,685.396,9
115,116,ctl,ctl39,,9,1,769,0,694.389,697.398,0.5
116,117,enc,enc75,old51,9,1,1538,0,697.9,700.909,7
117,118,enc,enc76,old54,6,1,2246,0,707.896,710.905,12.5
118,119,enc,enc77,old29,5,1,2437,0,723.393,726.402,2.5
119,120,enc,enc78,old22,6,1,1993,0,728.892,731.901,18.5
