trialnumber	category	trialcode	oldnumber	correctsource	stim_resp	stim_rt	stim_acc	stim_onset	fix_onset	duration
1	ctl	ctl0	nan	5	nan	0	1	4.579	7.578	0.5
2	enc	enc00	nan	8	nan	0	1	8.078	11.078	0.5
3	enc	enc000	nan	9	nan	0	1	11.578	14.578	5.5
4	ctl	ctl01	nan	8	nan	0	1	20.077	23.077	0.5
5	enc	enc01	old63	6	nan	0	1	23.577	26.577	1
6	enc	enc02	old05	5	nan	0	1	27.577	30.576	1
7	enc	enc03	old17	6	nan	0	1	31.576	34.576	1.5
8	enc	enc04	old73	9	nan	0	1	36.076	39.076	2
9	enc	enc05	old55	8	nan	0	1	41.076	44.075	3
10	enc	enc06	old51	9	nan	0	1	47.075	50.075	0.5
11	ctl	ctl02	nan	5	nan	0	1	50.575	53.575	4
12	ctl	ctl03	nan	6	nan	0	1	57.574	60.574	2.5
13	enc	enc07	old33	8	nan	0	1	63.074	66.074	1.5
14	ctl	ctl04	nan	8	nan	0	1	67.573	70.573	2
15	enc	enc08	old42	6	nan	0	1	72.573	75.573	3.5
16	enc	enc09	old22	5	nan	0	1	79.072	82.072	0.5
17	ctl	ctl05	nan	8	nan	0	1	82.572	85.572	2.5
18	enc	enc10	old32	6	nan	0	1	88.072	91.071	0.5
19	enc	enc11	old08	6	nan	0	1	91.571	94.571	1
20	enc	enc12	old20	8	nan	0	1	95.571	98.571	1.5
21	enc	enc13	old74	5	nan	0	1	100.071	103.07	2.5
22	enc	enc14	old16	9	nan	0	1	105.57	108.57	3
23	enc	enc15	old29	9	nan	0	1	111.57	114.57	1
24	enc	enc16	old35	5	nan	0	1	115.569	118.569	1.5
25	enc	enc17	old26	5	nan	0	1	120.069	123.069	1.5
26	ctl	ctl06	nan	5	nan	0	1	124.569	127.568	1
27	enc	enc18	old13	5	nan	0	1	128.568	131.568	2.5
28	enc	enc19	old41	8	nan	0	1	134.068	137.068	2.5
29	ctl	ctl07	nan	5	nan	0	1	139.567	142.567	0.5
30	enc	enc20	old72	6	nan	0	1	143.067	146.067	5.5
31	enc	enc21	old62	5	nan	0	1	151.566	154.566	5.5
32	enc	enc22	old67	6	nan	0	1	160.066	163.066	2
33	enc	enc23	old12	5	nan	0	1	165.065	168.065	1
34	enc	enc24	old04	8	nan	0	1	169.065	172.065	3
35	enc	enc25	old44	5	nan	0	1	175.065	178.064	3.5
36	enc	enc26	old53	9	nan	0	1	181.564	184.564	0.5
37	ctl	ctl08	nan	6	nan	0	1	185.064	188.064	1.5
38	ctl	ctl09	nan	9	nan	0	1	189.563	192.563	9.5
39	ctl	ctl10	nan	8	nan	0	1	202.062	205.062	2
40	ctl	ctl11	nan	5	nan	0	1	207.062	210.062	2
41	enc	enc27	old46	8	nan	0	1	212.062	215.061	1
42	ctl	ctl12	nan	9	nan	0	1	216.061	219.061	0.5
43	enc	enc28	old21	9	nan	0	1	219.561	222.561	0.5
44	ctl	ctl13	nan	6	nan	0	1	223.061	226.06	2
45	enc	enc29	old28	8	nan	0	1	228.06	231.06	4.5
46	enc	enc30	old61	6	nan	0	1	235.56	238.559	3.5
47	enc	enc31	old11	9	nan	0	1	242.059	245.059	8
48	enc	enc32	old76	6	nan	0	1	253.058	256.058	9
49	enc	enc33	old24	9	nan	0	1	265.057	268.057	0.5
50	enc	enc34	old25	6	nan	0	1	268.557	271.557	2.5
51	ctl	ctl14	nan	6	nan	0	1	274.056	277.056	8.5
52	enc	enc35	old78	5	nan	0	1	285.556	288.555	0.5
53	enc	enc36	old07	9	nan	0	1	289.055	292.055	5.5
54	enc	enc37	old01	8	nan	0	1	297.554	300.554	3
55	enc	enc38	old47	6	nan	0	1	303.554	306.554	4
56	ctl	ctl15	nan	6	nan	0	1	310.553	313.553	6.5
57	ctl	ctl16	nan	9	nan	0	1	320.053	323.052	0.5
58	enc	enc39	old54	6	nan	0	1	323.552	326.552	11.5
59	enc	enc40	old57	5	nan	0	1	338.051	341.051	9.5
60	enc	enc41	old68	6	nan	0	1	350.55	353.55	1
61	ctl	ctl17	nan	8	nan	0	1	354.55	357.55	5.5
62	enc	enc42	old60	9	nan	0	1	363.049	366.049	1.5
63	enc	enc43	old14	8	nan	0	1	367.549	370.548	1
64	enc	enc44	old39	9	nan	0	1	371.548	374.548	2
65	ctl	ctl18	nan	9	nan	0	1	376.548	379.548	3.5
66	enc	enc45	old23	8	nan	0	1	383.047	386.047	1.5
67	enc	enc46	old38	9	nan	0	1	387.547	390.547	0.5
68	ctl	ctl19	nan	8	nan	0	1	391.047	394.047	2.5
69	ctl	ctl20	nan	5	nan	0	1	396.546	399.546	0.5
70	ctl	ctl21	nan	5	nan	0	1	400.046	403.046	2.5
71	ctl	ctl22	nan	8	nan	0	1	405.546	408.545	2
72	ctl	ctl23	nan	9	nan	0	1	410.545	413.545	11
73	ctl	ctl24	nan	8	nan	0	1	424.544	427.544	1
74	enc	enc47	old37	6	nan	0	1	428.544	431.544	1.5
75	enc	enc48	old02	6	nan	0	1	433.043	436.043	0.5
76	enc	enc49	old43	8	nan	0	1	436.543	439.543	0.5
77	enc	enc50	old48	9	nan	0	1	440.043	443.043	2
78	enc	enc51	old06	6	nan	0	1	445.042	448.042	1
79	ctl	ctl25	nan	9	nan	0	1	449.042	452.042	2
80	ctl	ctl26	nan	5	nan	0	1	454.042	457.041	4
81	enc	enc52	old52	5	nan	0	1	461.041	464.041	4.5
82	enc	enc53	old59	9	nan	0	1	468.54	471.54	8.5
83	enc	enc54	old40	8	nan	0	1	480.04	483.039	1
84	enc	enc55	old64	8	nan	0	1	484.039	487.039	6
85	ctl	ctl27	nan	6	nan	0	1	493.038	496.038	1.5
86	enc	enc56	old36	6	nan	0	1	497.538	500.538	13
87	ctl	ctl28	nan	6	nan	0	1	513.537	516.537	1.5
88	enc	enc57	old58	9	nan	0	1	518.036	521.036	1.5
89	enc	enc58	old71	9	nan	0	1	522.536	525.536	7.5
90	enc	enc59	old65	5	nan	0	1	533.035	536.035	1.5
91	ctl	ctl29	nan	9	nan	0	1	537.535	540.535	3.5
92	enc	enc60	old56	8	nan	0	1	544.034	547.034	1
93	ctl	ctl30	nan	8	nan	0	1	548.034	551.034	1.5
94	enc	enc61	old03	8	nan	0	1	552.534	555.533	3.5
95	ctl	ctl31	nan	8	nan	0	1	559.033	562.033	4.5
96	enc	enc62	old30	5	nan	0	1	566.532	569.532	3
97	ctl	ctl32	nan	5	nan	0	1	572.532	575.532	0.5
98	enc	enc63	old69	8	nan	0	1	576.032	579.031	8
99	enc	enc64	old75	9	nan	0	1	587.031	590.03	5
100	ctl	ctl33	nan	9	nan	0	1	595.03	598.03	0.5
101	ctl	ctl34	nan	9	nan	0	1	598.53	601.53	1
102	enc	enc65	old70	8	nan	0	1	602.529	605.529	11.5
103	enc	enc66	old66	8	nan	0	1	617.028	620.028	2.5
104	ctl	ctl35	nan	6	nan	0	1	622.528	625.528	2
105	enc	enc67	old10	5	nan	0	1	627.527	630.527	0.5
106	enc	enc68	old09	9	nan	0	1	631.027	634.027	1
107	enc	enc69	old27	5	nan	0	1	635.027	638.027	1
108	enc	enc70	old45	9	nan	0	1	639.026	642.026	0.5
109	enc	enc71	old31	8	nan	0	1	642.526	645.526	7.5
110	ctl	ctl36	nan	6	nan	0	1	653.025	656.025	15
111	enc	enc72	old19	6	nan	0	1	671.024	674.024	0.5
112	enc	enc73	old77	9	nan	0	1	674.524	677.523	1
113	ctl	ctl37	nan	5	nan	0	1	678.523	681.523	0.5
114	ctl	ctl38	nan	6	nan	0	1	682.023	685.023	9
115	enc	enc74	old50	5	nan	0	1	694.022	697.022	6
116	enc	enc75	old49	6	nan	0	1	703.021	706.021	10.5
117	ctl	ctl39	nan	9	nan	0	1	716.52	719.52	5
118	enc	enc76	old15	5	nan	0	1	724.519	727.519	1
119	enc	enc77	old34	5	nan	0	1	728.519	731.519	18.5
120	enc	enc78	old18	8	nan	0	1			
