,trialnumber,category,trialcode,oldnumber,correctsource,stim_resp,stim_rt,stim_acc,onset,fix_onset,fix_duration
0,1,enc,enc00,,8,4,2465,0,0.037,3.037,4.5
1,2,enc,enc000,,9,4,2465,0,7.537,10.536,0.5
2,3,ctl,ctl0,,8,4,1466,0,11.036,14.036,0.5
3,4,enc,enc01,old54,6,4,466,0,14.536,17.536,6.5
4,5,enc,enc02,old10,5,4,966,0,24.035,27.035,2
5,6,enc,enc03,old17,6,4,966,0,29.035,32.035,1.5
6,7,enc,enc04,old74,9,4,1466,0,33.534,36.534,1
7,8,enc,enc05,old59,8,4,2466,0,37.534,40.534,8.5
8,9,enc,enc06,old44,9,4,967,0,49.033,52.033,2
9,10,enc,enc07,old32,8,4,967,0,54.033,57.032,2.5
10,11,ctl,ctl01,,8,4,468,0,59.532,62.532,1.5
11,12,ctl,ctl02,,5,1,930,0,64.032,67.032,1.5
12,13,enc,enc08,old43,6,4,1469,0,68.531,71.531,0.5
13,14,ctl,ctl03,,6,4,469,0,72.031,75.031,0.5
14,15,enc,enc09,old24,5,4,1969,0,75.531,78.531,2
15,16,enc,enc10,old29,6,4,1969,0,80.53,83.53,1.5
16,17,ctl,ctl04,,8,1,815,0,85.03,88.03,2
17,18,enc,enc11,old08,6,1,1881,0,90.03,93.029,7.5
18,19,enc,enc12,old14,8,4,1969,0,100.529,103.529,5
19,20,enc,enc13,old69,5,1,624,0,108.528,111.528,1.5
20,21,enc,enc14,old19,9,4,1970,0,113.028,116.027,3
21,22,enc,enc15,old35,9,4,971,0,119.027,122.027,1
22,23,enc,enc16,old36,5,4,1971,0,123.027,126.027,1.5
23,24,enc,enc17,old23,5,4,2471,0,127.527,130.526,8.5
24,25,enc,enc18,old11,5,4,971,0,139.026,142.025,2
25,26,ctl,ctl05,,8,1,845,0,144.025,147.025,1
26,27,ctl,ctl06,,5,1,796,0,148.025,151.025,1.5
27,28,enc,enc19,old41,8,1,2355,0,152.524,155.524,6.5
28,29,enc,enc20,old68,6,4,473,0,162.024,165.023,1.5
29,30,enc,enc21,old60,5,4,974,0,166.523,169.523,6.5
30,31,ctl,ctl07,,5,1,707,0,176.023,179.022,3.5
31,32,enc,enc22,old67,6,1,1959,0,182.522,185.522,8
32,33,enc,enc23,old09,5,4,1474,0,193.521,196.521,13
33,34,ctl,ctl08,,6,4,475,0,209.52,212.519,1
34,35,enc,enc24,old07,8,4,1476,0,213.519,216.519,2.5
35,36,enc,enc25,old50,5,4,976,0,219.019,222.019,1.5
36,37,enc,enc26,old53,9,4,1476,0,223.519,226.518,3.5
37,38,enc,enc27,old46,8,1,2178,0,230.018,233.018,2
38,39,enc,enc28,old26,9,4,2476,0,235.018,238.017,3
39,40,enc,enc29,old31,8,4,1477,0,241.017,244.017,7
40,41,enc,enc30,old58,6,1,1420,0,251.016,254.016,1
41,42,ctl,ctl09,,9,1,1064,0,255.016,258.016,0.5
42,43,ctl,ctl10,,8,1,621,0,258.516,261.515,1
43,44,enc,enc31,old13,9,1,1751,0,262.515,265.515,0.5
44,45,enc,enc32,old76,6,4,1478,0,266.015,269.015,7
45,46,enc,enc33,old21,9,4,1479,0,276.014,279.014,4
46,47,enc,enc34,old16,6,1,1275,0,283.014,286.013,2
47,48,ctl,ctl11,,5,1,749,0,288.013,291.013,2.5
48,49,enc,enc35,old75,5,4,1479,0,293.513,296.513,4.5
49,50,enc,enc36,old03,9,4,1480,0,301.012,304.012,0.5
50,51,ctl,ctl12,,9,4,480,0,304.512,307.512,3
51,52,enc,enc37,old05,8,1,1813,0,310.511,313.511,2
52,53,ctl,ctl13,,6,1,902,0,315.511,318.511,0.5
53,54,ctl,ctl14,,6,1,575,0,319.011,322.01,1
54,55,ctl,ctl15,,6,1,658,0,323.01,326.01,2.5
55,56,ctl,ctl16,,9,1,777,0,328.51,331.51,6.5
56,57,enc,enc38,old49,6,4,1981,0,338.009,341.009,9.5
57,58,enc,enc39,old55,6,1,1264,0,350.508,353.508,3
58,59,enc,enc40,old56,5,4,982,0,356.508,359.507,3
59,60,enc,enc41,old73,6,1,1855,0,362.507,365.507,1
60,61,enc,enc42,old62,9,4,983,0,366.507,369.506,2
61,62,enc,enc43,old18,8,4,984,0,371.506,374.506,1
62,63,enc,enc44,old33,9,4,1984,0,375.506,378.506,0.5
63,64,enc,enc45,old25,8,4,984,0,379.006,382.005,2.5
64,65,enc,enc46,old34,9,4,484,0,384.505,387.505,8.5
65,66,enc,enc47,old28,6,1,1724,0,396.004,399.004,5.5
66,67,enc,enc48,old06,6,1,489,0,404.504,407.503,2
67,68,enc,enc49,old42,8,2,490,0,409.503,412.503,6
68,69,enc,enc50,old40,9,3,1491,0,418.502,421.502,6
69,70,enc,enc51,old12,6,1,1959,0,427.502,430.501,1.5
70,71,ctl,ctl17,,8,4,490,0,432.001,435.001,2
71,72,enc,enc52,old52,5,4,490,0,437.001,440.001,1.5
72,73,ctl,ctl18,,9,1,694,0,441.5,444.5,4
73,74,ctl,ctl19,,8,1,476,0,448.5,451.5,0.5
74,75,ctl,ctl20,,5,4,493,0,452,454.999,6
75,76,enc,enc53,old61,9,4,1494,0,460.999,463.999,0.5
76,77,enc,enc54,old51,8,2,496,0,464.499,467.498,2.5
77,78,enc,enc55,old64,8,2,3,0,469.998,472.998,1.5
78,79,enc,enc56,old38,6,2,497,0,474.498,477.497,2.5
79,80,ctl,ctl21,,5,1,653,0,479.997,482.997,5.5
80,81,enc,enc57,old63,9,1,1491,0,488.497,491.496,4.5
81,82,ctl,ctl22,,8,1,670,0,495.996,498.996,2.5
82,83,enc,enc58,old71,9,1,992,0,501.495,504.495,6.5
83,84,ctl,ctl23,,9,1,671,0,510.995,513.994,6.5
84,85,ctl,ctl24,,8,1,540,0,520.494,523.494,1.5
85,86,ctl,ctl25,,9,1,2,0,524.994,527.993,4.5
86,87,ctl,ctl26,,5,1,2,0,532.493,535.493,1.5
87,88,enc,enc59,old57,5,1,493,0,536.993,539.992,0.5
88,89,ctl,ctl27,,6,1,774,0,540.492,543.492,10.5
89,90,ctl,ctl28,,6,1,541,0,553.991,556.991,4.5
90,91,enc,enc60,old65,8,1,995,0,561.491,564.49,2
91,92,ctl,ctl29,,9,1,886,0,566.49,569.49,1.5
92,93,enc,enc61,old02,8,1,1495,0,570.99,573.989,12.5
93,94,enc,enc62,old30,5,1,996,0,586.488,589.488,2
94,95,enc,enc63,old77,8,2,996,0,591.488,594.488,1
95,96,ctl,ctl30,,8,1,704,0,595.488,598.487,4
96,97,enc,enc64,old66,9,4,2,0,602.487,605.487,0.5
97,98,enc,enc65,old72,8,2,1497,0,605.987,608.987,4
98,99,enc,enc66,old70,8,1,1833,0,612.986,615.986,3.5
99,100,ctl,ctl31,,8,2,498,0,619.486,622.485,1
100,101,ctl,ctl32,,5,1,543,0,623.485,626.485,0.5
101,102,enc,enc67,old04,5,2,499,0,626.985,629.985,2.5
102,103,ctl,ctl33,,9,4,2,0,632.485,635.484,0.5
103,104,ctl,ctl34,,9,1,489,0,635.984,638.984,9
104,105,ctl,ctl35,,6,1,557,0,647.983,650.983,2
105,106,enc,enc68,old01,9,2,1999,0,652.983,655.983,0.5
106,107,ctl,ctl36,,6,1,886,0,656.483,659.482,2
107,108,ctl,ctl37,,5,1,493,0,661.482,664.482,4.5
108,109,ctl,ctl38,,6,1,523,0,668.982,671.981,4.5
109,110,enc,enc69,old37,5,2,1001,0,676.481,679.481,3.5
110,111,enc,enc70,old45,9,2,2002,0,682.98,685.98,1.5
111,112,enc,enc71,old39,8,2,2,0,687.48,690.48,4.5
112,113,enc,enc72,old15,6,3,2,0,694.979,697.979,0.5
113,114,enc,enc73,old78,9,3,1508,0,698.479,701.479,0.5
114,115,ctl,ctl39,,9,3,502,0,701.979,704.979,5
115,116,enc,enc74,old47,5,3,3,0,709.978,712.978,4.5
116,117,enc,enc75,old48,6,3,12,0,717.478,720.477,5.5
117,118,enc,enc76,old22,5,1,1939,0,725.977,728.977,1
118,119,enc,enc77,old27,5,1,1767,0,729.976,732.976,0.5
119,120,enc,enc78,old20,8,1,1918,0,733.476,736.476,13.5
