,trialnumber,category,trialcode,oldnumber,correctsource,stim_resp,stim_rt,stim_acc,onset,fix_onset,fix_duration
0,1,enc,enc00,,5,1,994,0,0.11,3.109,7
1,2,enc,enc000,,9,1,1090,0,10.109,13.108,4.5
2,3,ctl,ctl0,,9,1,1336,0,17.608,20.608,4.5
3,4,enc,enc01,old58,8,1,1840,0,25.107,28.107,0.5
4,5,ctl,ctl01,,6,3,1394,0,28.607,31.607,0.5
5,6,enc,enc02,old06,5,3,394,0,32.107,35.107,4.5
6,7,enc,enc03,old54,5,3,395,0,39.606,42.606,2
7,8,ctl,ctl02,,5,4,395,0,44.606,47.605,3.5
8,9,ctl,ctl03,,6,4,1396,0,51.105,54.105,1.5
9,10,enc,enc04,old68,6,1,1067,0,55.605,58.604,2.5
10,11,enc,enc05,old77,5,4,1396,0,61.104,64.104,1
11,12,ctl,ctl04,,6,1,959,0,65.104,68.104,3
12,13,enc,enc06,old44,9,4,1396,0,71.103,74.103,4
13,14,ctl,ctl05,,9,1,833,0,78.103,81.102,0.5
14,15,enc,enc07,old65,6,4,897,0,81.602,84.602,2.5
15,16,ctl,ctl06,,9,4,397,0,87.102,90.102,2.5
16,17,ctl,ctl07,,5,1,668,0,92.601,95.601,3.5
17,18,enc,enc08,old02,8,4,897,0,99.101,102.1,1
18,19,enc,enc09,old66,9,4,1898,0,103.1,106.1,2
19,20,enc,enc10,old01,5,4,1898,0,108.1,111.1,0.5
20,21,enc,enc11,old30,9,4,898,0,111.6,114.599,4.5
21,22,enc,enc12,old35,5,4,899,0,119.099,122.099,7
22,23,enc,enc13,old42,8,1,858,0,129.098,132.098,0.5
23,24,enc,enc14,old48,8,1,1034,0,132.598,135.597,2
24,25,enc,enc15,old51,9,1,918,0,137.597,140.597,1
25,26,enc,enc16,old40,8,4,900,0,141.597,144.597,1
26,27,enc,enc17,old03,5,1,975,0,145.597,148.596,3.5
27,28,ctl,ctl08,,8,4,401,0,152.096,155.096,1
28,29,enc,enc18,old34,8,4,1400,0,156.096,159.095,2
29,30,enc,enc19,old24,8,1,1218,0,161.095,164.095,0.5
30,31,enc,enc20,old20,5,4,401,0,164.595,167.595,3.5
31,32,ctl,ctl09,,8,1,857,0,171.094,174.094,7
32,33,enc,enc21,old41,9,1,1062,0,181.093,184.093,2.5
33,34,enc,enc22,old19,9,4,902,0,186.593,189.592,5
34,35,enc,enc23,old10,6,4,403,0,194.592,197.592,1
35,36,enc,enc24,old25,8,1,1133,0,198.592,201.591,10
36,37,enc,enc25,old78,8,4,904,0,211.59,214.59,1.5
37,38,enc,enc26,old18,9,1,1028,0,216.09,219.09,0.5
38,39,enc,enc27,old75,5,4,404,0,219.59,222.59,2.5
39,40,enc,enc28,old28,6,1,903,0,225.089,228.089,3.5
40,41,ctl,ctl10,,9,1,747,0,231.589,234.588,1
41,42,ctl,ctl11,,6,1,761,0,235.588,238.588,0.5
42,43,ctl,ctl12,,6,1,719,0,239.088,242.088,1.5
43,44,ctl,ctl13,,5,1,647,0,243.588,246.587,7
44,45,enc,enc29,old72,9,4,1405,0,253.587,256.586,7
45,46,enc,enc30,old73,8,1,824,0,263.586,266.586,2
46,47,ctl,ctl14,,9,1,758,0,268.585,271.585,6.5
47,48,enc,enc31,old32,6,1,628,0,278.084,281.084,3.5
48,49,enc,enc32,old11,6,4,407,0,284.584,287.584,2.5
49,50,enc,enc33,old12,9,1,734,0,290.083,293.083,4
50,51,enc,enc34,old53,8,4,408,0,297.083,300.082,3.5
51,52,ctl,ctl15,,8,1,747,0,303.582,306.582,1
52,53,enc,enc35,old07,9,1,1310,0,307.582,310.581,6.5
53,54,ctl,ctl16,,9,4,408,0,317.081,320.081,7.5
54,55,ctl,ctl17,,8,1,1145,0,327.58,330.58,2.5
55,56,enc,enc36,old57,8,1,1564,0,333.079,336.079,1.5
56,57,enc,enc37,old16,9,1,854,0,337.579,340.579,1
57,58,enc,enc38,old47,6,4,910,0,341.579,344.578,3
58,59,ctl,ctl18,,5,1,602,0,347.578,350.578,2.5
59,60,enc,enc39,old26,5,1,1139,0,353.078,356.077,1
60,61,enc,enc40,old22,6,4,411,0,357.077,360.077,9
61,62,enc,enc41,old71,6,4,912,0,369.076,372.076,1.5
62,63,enc,enc42,old29,8,1,1223,0,373.576,376.576,8.5
63,64,enc,enc43,old33,9,1,1103,0,385.075,388.074,8
64,65,ctl,ctl19,,5,1,834,0,396.074,399.073,1.5
65,66,enc,enc44,old50,5,1,1449,0,400.573,403.573,5
66,67,ctl,ctl20,,8,1,707,0,408.573,411.572,1
67,68,ctl,ctl21,,9,1,849,0,412.572,415.572,3
68,69,enc,enc45,old62,6,1,1270,0,418.572,421.571,5
69,70,ctl,ctl22,,8,1,754,0,426.571,429.571,0.5
70,71,enc,enc46,old63,9,1,1045,0,430.071,433.07,1.5
71,72,enc,enc47,old45,6,4,415,0,434.57,437.57,0.5
72,73,enc,enc48,old27,9,1,1073,0,438.07,441.07,2
73,74,enc,enc49,old23,6,1,1327,0,443.069,446.069,1.5
74,75,enc,enc50,old08,8,1,812,0,447.569,450.569,1
75,76,enc,enc51,old60,9,4,915,0,451.569,454.568,2.5
76,77,enc,enc52,old76,8,4,416,0,457.068,460.068,5.5
77,78,ctl,ctl23,,9,1,819,0,465.567,468.567,2.5
78,79,enc,enc53,old21,9,1,1205,0,471.067,474.067,1.5
79,80,ctl,ctl24,,6,1,656,0,475.567,478.566,0.5
80,81,enc,enc54,old67,5,1,754,0,479.066,482.066,3
81,82,enc,enc55,old36,8,1,711,0,485.066,488.065,3.5
82,83,enc,enc56,old38,5,4,917,0,491.565,494.565,7.5
83,84,enc,enc57,old49,6,4,418,0,502.064,505.064,2.5
84,85,ctl,ctl25,,6,1,763,0,507.564,510.563,0.5
85,86,enc,enc58,old14,5,1,1054,0,511.063,514.063,1
86,87,enc,enc59,old43,6,1,2348,0,515.063,518.063,4
87,88,enc,enc60,old74,8,4,420,0,522.062,525.062,11.5
88,89,ctl,ctl26,,6,1,563,0,536.561,539.561,0.5
89,90,ctl,ctl27,,9,1,588,0,540.061,543.06,4
90,91,ctl,ctl28,,5,4,421,0,547.06,550.06,0.5
91,92,enc,enc61,old39,5,1,886,0,550.56,553.559,2.5
92,93,enc,enc62,old64,5,4,1421,0,556.059,559.059,3
93,94,ctl,ctl29,,8,4,421,0,562.059,565.058,1
94,95,enc,enc63,old04,5,1,965,0,566.058,569.058,2
95,96,enc,enc64,old13,9,1,1114,0,571.058,574.058,0.5
96,97,ctl,ctl30,,9,4,421,0,574.558,577.557,7
97,98,enc,enc65,old59,9,4,422,0,584.557,587.556,0.5
98,99,enc,enc66,old52,5,1,1054,0,588.056,591.056,0.5
99,100,ctl,ctl31,,6,1,691,0,591.556,594.556,0.5
100,101,ctl,ctl32,,5,1,618,0,595.056,598.055,1.5
101,102,enc,enc67,old61,8,4,423,0,599.555,602.555,3
102,103,enc,enc68,old37,6,1,1032,0,605.555,608.554,1.5
103,104,ctl,ctl33,,5,1,681,0,610.054,613.054,4.5
104,105,ctl,ctl34,,8,1,651,0,617.554,620.553,0.5
105,106,enc,enc69,old09,6,1,1042,0,621.053,624.053,8
106,107,enc,enc70,old56,5,4,425,0,632.052,635.052,1
107,108,ctl,ctl35,,8,1,716,0,636.052,639.052,4.5
108,109,ctl,ctl36,,6,1,704,0,643.551,646.551,2
109,110,enc,enc71,old70,6,1,1094,0,648.551,651.551,1
110,111,enc,enc72,old05,8,1,885,0,652.55,655.55,2
111,112,ctl,ctl37,,5,1,621,0,657.55,660.55,2
112,113,ctl,ctl38,,8,1,603,0,662.55,665.549,10
113,114,enc,enc73,old69,9,1,649,0,675.548,678.548,3.5
114,115,enc,enc74,old17,8,4,427,0,682.048,685.048,9
115,116,ctl,ctl39,,9,1,727,0,694.047,697.046,0.5
116,117,enc,enc75,old46,9,1,1130,0,697.546,700.546,7
117,118,enc,enc76,old55,6,1,700,0,707.545,710.545,12.5
118,119,enc,enc77,old31,5,1,1070,0,723.044,726.044,2.5
119,120,enc,enc78,old15,6,1,667,0,728.544,731.543,18.5
