trialnumber	category	trialcode	oldnumber	correctsource	stim_resp	stim_rt	stim_acc	stim_onset	fix_onset	duration
1	ctl	ctl0	nan	9	1	900	0	5.018	8.027	3
2	enc	enc00	nan	5	1	749	0	11.019	14.028	2
3	enc	enc000	nan	9	1	788	0	16.017	19.026	1
4	ctl	ctl01	nan	6	1	854	0	20.029	23.038	8
5	enc	enc01	old64	8	1	770	0	31.029	34.037	7.5
6	enc	enc02	old09	5	1	1274	0	41.526	44.535	0.5
7	enc	enc03	old61	5	1	896	0	45.037	48.046	6
8	enc	enc04	old52	6	1	945	0	54.047	57.056	2
9	enc	enc05	old50	5	1	759	0	59.045	62.054	2
10	enc	enc06	old77	9	1	1177	0	64.044	67.053	4
11	ctl	ctl02	nan	5	1	794	0	71.048	74.057	2.5
12	ctl	ctl03	nan	6	1	893	0	76.548	79.557	1.5
13	ctl	ctl04	nan	6	1	777	0	81.044	84.053	5
14	ctl	ctl05	nan	9	1	681	0	89.052	92.061	1
15	enc	enc07	old59	6	1	793	0	93.064	96.072	3
16	enc	enc08	old02	8	1	853	0	99.065	102.074	3
17	ctl	ctl06	nan	9	1	715	0	105.066	108.075	2.5
18	enc	enc09	old43	9	1	738	0	110.566	113.575	6.5
19	enc	enc10	old08	5	1	702	0	120.077	123.086	2.5
20	enc	enc11	old30	9	1	759	0	125.577	128.586	2
21	enc	enc12	old33	5	1	811	0	130.575	133.584	4.5
22	enc	enc13	old71	8	1	820	0	138.081	141.09	4.5
23	enc	enc14	old75	8	1	722	0	145.587	148.596	2.5
24	enc	enc15	old72	9	1	776	0	151.087	154.096	1
25	enc	enc16	old74	8	1	908	0	155.099	158.107	1.5
26	enc	enc17	old13	5	1	1096	0	159.595	162.604	4
27	ctl	ctl07	nan	5	1	848	0	166.599	169.608	3
28	ctl	ctl08	nan	8	1	531	0	172.601	175.61	1
29	enc	enc18	old35	8	1	593	0	176.613	179.622	1
30	enc	enc19	old20	8	1	821	0	180.625	183.634	0.5
31	enc	enc20	old25	5	1	1065	0	184.135	187.144	3.5
32	enc	enc21	old67	9	1	699	0	190.638	193.647	4.5
33	enc	enc22	old17	9	1	620	0	198.144	201.153	9.5
34	ctl	ctl09	nan	8	1	665	0	210.648	213.656	3.5
35	enc	enc23	old04	6	1	665	0	217.15	220.159	4
36	ctl	ctl10	nan	9	1	691	0	224.154	227.163	4
37	enc	enc24	old22	8	1	623	0	231.159	234.168	1
38	enc	enc25	old49	8	1	625	0	235.171	238.18	6
39	enc	enc26	old18	9	1	661	0	244.181	247.19	6.5
40	enc	enc27	old41	5	1	659	0	253.693	256.702	2
41	enc	enc28	old32	6	1	643	0	258.691	261.7	1.5
42	enc	enc29	old42	9	1	572	0	263.188	266.196	2.5
43	enc	enc30	old44	8	1	675	0	268.687	271.696	4.5
44	enc	enc31	old28	6	1	656	0	276.193	279.202	0.5
45	enc	enc32	old01	6	1	638	0	279.703	282.712	1
46	ctl	ctl11	nan	6	1	1072	0	283.699	286.708	1.5
47	enc	enc33	old05	9	1	596	0	288.195	291.204	2
48	enc	enc34	old62	8	1	620	0	293.194	296.203	4
49	ctl	ctl12	nan	6	1	492	0	300.198	303.207	2
50	enc	enc35	old06	9	1	520	0	305.196	308.205	2.5
51	enc	enc36	old55	8	1	498	0	310.696	313.705	2
52	enc	enc37	old19	9	1	526	0	315.694	318.703	14.5
53	enc	enc38	old78	6	1	560	0	333.196	336.205	4
54	enc	enc39	old15	5	1	649	0	340.201	343.21	1.5
55	ctl	ctl13	nan	5	1	572	0	344.697	347.706	1
56	enc	enc40	old14	6	1	524	0	348.693	351.701	3
57	ctl	ctl14	nan	9	1	552	0	354.694	357.703	5.5
58	ctl	ctl15	nan	8	1	470	0	363.202	366.211	2
59	ctl	ctl16	nan	9	1	434	0	368.201	371.21	2.5
60	enc	enc41	old45	6	1	467	0	373.7	376.709	3
61	enc	enc42	old36	8	1	512	0	379.702	382.711	3
62	enc	enc43	old34	9	1	598	0	385.703	388.712	2
63	enc	enc44	old66	5	1	541	0	390.701	393.71	5
64	enc	enc45	old57	6	1	678	0	398.708	401.717	4.5
65	enc	enc46	old54	9	1	471	0	406.214	409.223	10.5
66	ctl	ctl17	nan	8	1	645	0	419.721	422.73	2.5
67	enc	enc47	old69	6	1	625	0	425.221	428.23	2.5
68	enc	enc48	old31	9	1	557	0	430.72	433.729	6
69	ctl	ctl18	nan	5	1	514	0	439.731	442.74	3.5
70	ctl	ctl19	nan	5	1	599	0	446.233	449.242	1.5
71	enc	enc49	old16	6	1	497	0	450.73	453.739	2.5
72	ctl	ctl20	nan	8	1	544	0	456.23	459.239	4
73	ctl	ctl21	nan	9	1	539	0	463.234	466.243	2
74	enc	enc50	old12	8	1	575	0	468.232	471.241	3
75	enc	enc51	old56	9	1	577	0	474.234	477.243	3
76	ctl	ctl22	nan	8	1	431	0	480.235	483.244	4
77	enc	enc52	old48	8	1	462	0	487.239	490.248	0.5
78	enc	enc53	old26	9	1	449	0	490.749	493.758	8
79	ctl	ctl23	nan	9	1	1035	0	501.749	504.758	3
80	ctl	ctl24	nan	6	1	491	0	507.75	510.759	0.5
81	enc	enc54	old40	5	1	450	0	511.261	514.27	1.5
82	enc	enc55	old27	8	1	587	0	515.757	518.766	4
83	enc	enc56	old39	5	1	538	0	522.762	525.771	5
84	ctl	ctl25	nan	6	1	485	0	530.769	533.778	7.5
85	enc	enc57	old73	6	1	478	0	541.267	544.276	1
86	ctl	ctl26	nan	6	1	476	0	545.279	548.288	1.5
87	ctl	ctl27	nan	9	1	616	0	549.776	552.784	0.5
88	enc	enc58	old21	5	1	518	0	553.286	556.295	1.5
89	enc	enc59	old70	6	1	632	0	557.783	560.792	2
90	enc	enc60	old46	8	1	511	0	562.781	565.79	1
91	ctl	ctl28	nan	5	1	569	0	566.793	569.802	5
92	ctl	ctl29	nan	8	1	517	0	574.8	577.809	2
93	ctl	ctl30	nan	9	1	478	0	579.798	582.807	5.5
94	ctl	ctl31	nan	6	1	456	0	588.307	591.316	0.5
95	enc	enc61	old37	5	1	490	0	591.818	594.827	8
96	ctl	ctl32	nan	5	1	563	0	602.817	605.826	1
97	enc	enc62	old60	5	1	492	0	606.829	609.838	0.5
98	ctl	ctl33	nan	5	1	464	0	610.339	613.348	3.5
99	enc	enc63	old03	5	1	466	0	616.842	619.851	1.5
100	enc	enc64	old11	9	1	522	0	621.339	624.348	2.5
101	enc	enc65	old65	9	1	449	0	626.839	629.848	9.5
102	enc	enc66	old68	5	1	421	0	639.343	642.352	0.5
103	enc	enc67	old53	8	1	517	0	642.853	645.862	1
104	ctl	ctl34	nan	8	1	479	0	646.848	649.857	3
105	enc	enc68	old38	6	1	459	0	652.85	655.859	1
106	enc	enc69	old10	6	1	377	0	656.862	659.871	2
107	ctl	ctl35	nan	8	1	493	0	661.86	664.869	0.5
108	ctl	ctl36	nan	6	1	439	0	665.37	668.379	2
109	enc	enc70	old63	5	1	553	0	670.368	673.377	8.5
110	ctl	ctl37	nan	5	1	491	0	681.869	684.878	1.5
111	enc	enc71	old47	6	1	485	0	686.366	689.375	1
112	enc	enc72	old07	8	1	540	0	690.361	693.37	1
113	enc	enc73	old51	9	1	489	0	694.357	697.366	4
114	enc	enc74	old23	8	1	485	0	701.361	704.37	9.5
115	enc	enc75	old76	9	1	473	0	713.865	716.874	4.5
116	ctl	ctl38	nan	8	1	448	0	721.371	724.38	0.5
117	ctl	ctl39	nan	9	1	494	0	724.881	727.89	4
118	enc	enc76	old58	6	1	496	0	731.885	734.894	1
119	enc	enc77	old29	5	1	468	0	735.881	738.889	11.5
120	enc	enc78	old24	6	1	480	0			
