,trialnumber,category,trialcode,oldnumber,correctsource,stim_resp,stim_rt,stim_acc,onset,fix_onset,fix_duration
0,1,ctl,ctl0,,9,1,703,0,0.089,3.088,2
1,2,enc,enc00,,5,1,1591,0,5.088,8.088,3
2,3,enc,enc000,,9,1,1991,0,11.088,14.087,2
3,4,ctl,ctl01,,6,1,664,0,16.087,19.087,1
4,5,enc,enc01,old64,8,1,1600,0,20.087,23.087,8
5,6,enc,enc02,old04,5,1,1313,0,31.086,34.086,7.5
6,7,enc,enc03,old62,5,1,1269,0,41.585,44.585,0.5
7,8,enc,enc04,old41,6,1,1353,0,45.085,48.084,6
8,9,enc,enc05,old46,5,1,1202,0,54.084,57.083,2
9,10,enc,enc06,old66,9,1,1187,0,59.083,62.083,2
10,11,ctl,ctl02,,5,1,667,0,64.083,67.083,4
11,12,ctl,ctl03,,6,1,548,0,71.082,74.082,2.5
12,13,ctl,ctl04,,6,1,544,0,76.582,79.581,1.5
13,14,ctl,ctl05,,9,1,692,0,81.081,84.081,5
14,15,enc,enc07,old65,6,1,932,0,89.081,92.08,1
15,16,enc,enc08,old03,8,1,1101,0,93.08,96.08,3
16,17,ctl,ctl06,,9,1,565,0,99.08,102.079,3
17,18,enc,enc09,old40,9,1,1374,0,105.079,108.079,2.5
18,19,enc,enc10,old12,5,1,1114,0,110.579,113.578,6.5
19,20,enc,enc11,old35,9,1,1047,0,120.078,123.078,2.5
20,21,enc,enc12,old30,5,1,1243,0,125.577,128.577,2
21,22,enc,enc13,old74,8,1,995,0,130.577,133.577,4.5
22,23,enc,enc14,old72,8,1,1288,0,138.076,141.076,4.5
23,24,enc,enc15,old69,9,1,1036,0,145.576,148.575,2.5
24,25,enc,enc16,old70,8,1,1257,0,151.075,154.075,1
25,26,enc,enc17,old02,5,1,1456,0,155.075,158.074,1.5
26,27,ctl,ctl07,,5,1,445,0,159.574,162.574,4
27,28,ctl,ctl08,,8,1,677,0,166.574,169.573,3
28,29,enc,enc18,old38,8,1,1254,0,172.573,175.573,1
29,30,enc,enc19,old23,8,1,1286,0,176.573,179.573,1
30,31,enc,enc20,old26,5,1,1471,0,180.572,183.572,0.5
31,32,enc,enc21,old76,9,1,1283,0,184.072,187.072,3.5
32,33,enc,enc22,old20,9,1,1223,0,190.572,193.571,4.5
33,34,ctl,ctl09,,8,1,755,0,198.071,201.071,9.5
34,35,enc,enc23,old10,6,1,912,0,210.57,213.569,3.5
35,36,ctl,ctl10,,9,1,557,0,217.069,220.069,4
36,37,enc,enc24,old18,8,1,1013,0,224.069,227.068,4
37,38,enc,enc25,old44,8,1,1174,0,231.068,234.068,1
38,39,enc,enc26,old19,9,1,1309,0,235.068,238.067,6
39,40,enc,enc27,old47,5,1,1190,0,244.067,247.066,6.5
40,41,enc,enc28,old27,6,1,987,0,253.566,256.566,2
41,42,enc,enc29,old49,9,1,1443,0,258.566,261.565,1.5
42,43,enc,enc30,old42,8,1,984,0,263.065,266.065,2.5
43,44,enc,enc31,old31,6,1,1115,0,268.565,271.564,4.5
44,45,enc,enc32,old13,6,1,1048,0,276.064,279.064,0.5
45,46,ctl,ctl11,,6,1,636,0,279.564,282.563,1
46,47,enc,enc33,old01,9,1,1173,0,283.563,286.563,1.5
47,48,enc,enc34,old59,8,1,1265,0,288.063,291.063,2
48,49,ctl,ctl12,,6,1,554,0,293.062,296.062,4
49,50,enc,enc35,old08,9,1,954,0,300.062,303.061,2
50,51,enc,enc36,old53,8,1,970,0,305.061,308.061,2.5
51,52,enc,enc37,old22,9,1,1006,0,310.561,313.561,2
52,53,enc,enc38,old68,6,1,1071,0,315.56,318.56,14.5
53,54,enc,enc39,old17,5,1,1180,0,333.059,336.059,4
54,55,ctl,ctl13,,5,1,445,0,340.058,343.058,1.5
55,56,enc,enc40,old16,6,1,1369,0,344.558,347.557,1
56,57,ctl,ctl14,,9,1,889,0,348.557,351.557,3
57,58,ctl,ctl15,,8,1,545,0,354.557,357.557,5.5
58,59,ctl,ctl16,,9,1,622,0,363.056,366.056,2
59,60,enc,enc41,old48,6,1,998,0,368.056,371.055,2.5
60,61,enc,enc42,old32,8,1,1035,0,373.555,376.555,3
61,62,enc,enc43,old33,9,1,987,0,379.555,382.554,3
62,63,enc,enc44,old77,5,1,859,0,385.554,388.554,2
63,64,enc,enc45,old58,6,1,995,0,390.554,393.553,5
64,65,enc,enc46,old55,9,1,972,0,398.553,401.553,4.5
65,66,ctl,ctl17,,8,1,577,0,406.052,409.052,10.5
66,67,enc,enc47,old67,6,1,862,0,419.551,422.551,2.5
67,68,enc,enc48,old28,9,1,1089,0,425.051,428.05,2.5
68,69,ctl,ctl18,,5,1,686,0,430.55,433.55,6
69,70,ctl,ctl19,,5,1,551,0,439.549,442.549,3.5
70,71,enc,enc49,old25,6,1,979,0,446.049,449.048,1.5
71,72,ctl,ctl20,,8,1,648,0,450.548,453.548,2.5
72,73,ctl,ctl21,,9,1,500,0,456.048,459.048,4
73,74,enc,enc50,old07,8,1,1116,0,463.047,466.047,2
74,75,enc,enc51,old63,9,1,1108,0,468.047,471.046,3
75,76,ctl,ctl22,,8,1,701,0,474.046,477.046,3
76,77,enc,enc52,old43,8,1,1237,0,480.046,483.045,4
77,78,enc,enc53,old21,9,1,1230,0,487.045,490.045,0.5
78,79,ctl,ctl23,,9,1,858,0,490.545,493.544,8
79,80,ctl,ctl24,,6,1,482,0,501.544,504.543,3
80,81,enc,enc54,old45,5,1,987,0,507.543,510.543,0.5
81,82,enc,enc55,old29,8,1,943,0,511.043,514.043,1.5
82,83,enc,enc56,old37,5,1,1180,0,515.542,518.542,4
83,84,ctl,ctl25,,6,1,588,0,522.542,525.542,5
84,85,enc,enc57,old75,6,1,997,0,530.541,533.541,7.5
85,86,ctl,ctl26,,6,1,593,0,541.04,544.04,1
86,87,ctl,ctl27,,9,1,585,0,545.04,548.04,1.5
87,88,enc,enc58,old15,5,1,1214,0,549.539,552.539,0.5
88,89,enc,enc59,old71,6,1,1058,0,553.039,556.039,1.5
89,90,enc,enc60,old52,8,1,1294,0,557.539,560.538,2
90,91,ctl,ctl28,,5,1,695,0,562.538,565.538,1
91,92,ctl,ctl29,,8,1,719,0,566.538,569.538,5
92,93,ctl,ctl30,,9,1,552,0,574.537,577.537,2
93,94,ctl,ctl31,,6,1,567,0,579.537,582.536,5.5
94,95,enc,enc61,old36,5,1,1756,0,588.036,591.036,0.5
95,96,ctl,ctl32,,5,1,752,0,591.536,594.535,8
96,97,enc,enc62,old57,5,1,993,0,602.535,605.534,1
97,98,ctl,ctl33,,5,1,554,0,606.534,609.534,0.5
98,99,enc,enc63,old05,5,1,1086,0,610.034,613.034,3.5
99,100,enc,enc64,old06,9,1,1203,0,616.533,619.533,1.5
100,101,enc,enc65,old56,9,1,1510,0,621.033,624.033,2.5
101,102,enc,enc66,old78,5,1,1314,0,626.533,629.532,9.5
102,103,enc,enc67,old60,8,1,928,0,639.031,642.031,0.5
103,104,ctl,ctl34,,8,1,660,0,642.531,645.531,1
104,105,enc,enc68,old34,6,1,1275,0,646.531,649.53,3
105,106,enc,enc69,old09,6,1,1268,0,652.53,655.53,1
106,107,ctl,ctl35,,8,1,628,0,656.53,659.53,2
107,108,ctl,ctl36,,6,1,573,0,661.529,664.529,0.5
108,109,enc,enc70,old61,5,1,1249,0,665.029,668.029,2
109,110,ctl,ctl37,,5,1,673,0,670.029,673.028,8.5
110,111,enc,enc71,old51,6,1,606,0,681.528,684.527,1.5
111,112,enc,enc72,old11,8,1,1323,0,686.027,689.027,1
112,113,enc,enc73,old50,9,1,1298,0,690.027,693.027,1
113,114,enc,enc74,old14,8,1,1011,0,694.026,697.026,4
114,115,enc,enc75,old73,9,1,1171,0,701.026,704.026,9.5
115,116,ctl,ctl38,,8,1,576,0,713.525,716.525,4.5
116,117,ctl,ctl39,,9,1,1085,0,721.024,724.024,0.5
117,118,enc,enc76,old54,6,1,1113,0,724.524,727.523,4
118,119,enc,enc77,old39,5,1,1601,0,731.523,734.523,1
119,120,enc,enc78,old24,6,1,521,0,735.523,738.523,11.5
