trialnumber	category	trialcode	oldnumber	correctsource	stim_resp	stim_rt	stim_acc	onset	fix_onset	fix_duration
1	enc	enc00	nan	8	2	1402	0	7.619	10.619	0.5
2	enc	enc000	nan	9	2	703	0	11.119	14.119	0.5
3	ctl	ctl0	nan	8	2	793	0	14.618	17.618	6.5
4	enc	enc01	old63	6	2	1763	0	24.118	27.117	2
5	enc	enc02	old08	5	2	1265	0	29.117	32.117	1.5
6	enc	enc03	old18	6	2	1613	0	33.617	36.616	1
7	enc	enc04	old75	9	2	1049	0	37.616	40.616	8.5
8	enc	enc05	old53	8	2	1283	0	49.115	52.115	2
9	enc	enc06	old41	9	2	1142	0	54.115	57.115	2.5
10	enc	enc07	old36	8	2	1531	0	59.614	62.614	1.5
11	ctl	ctl01	nan	8	2	735	0	64.114	67.114	1.5
12	ctl	ctl02	nan	5	2	625	0	68.613	71.613	0.5
13	enc	enc08	old46	6	2	2064	0	72.113	75.113	0.5
14	ctl	ctl03	nan	6	2	955	0	75.613	78.612	2
15	enc	enc09	old16	5	2	1233	0	80.612	83.612	1.5
16	enc	enc10	old34	6	2	1558	0	85.112	88.112	2
17	ctl	ctl04	nan	8	2	531	0	90.111	93.111	7.5
18	enc	enc11	old11	6	2	1197	0	100.61	103.61	5
19	enc	enc12	old23	8	2	899	0	108.61	111.609	1.5
20	enc	enc13	old71	5	2	971	0	113.109	116.109	3
21	enc	enc14	old24	9	2	2010	0	119.109	122.108	1
22	enc	enc15	old33	9	2	1163	0	123.108	126.108	1.5
23	enc	enc16	old32	5	2	621	0	127.608	130.608	8.5
24	enc	enc17	old25	5	2	1624	0	139.107	142.107	2
25	enc	enc18	old13	5	2	1304	0	144.106	147.106	1
26	ctl	ctl05	nan	8	2	752	0	148.106	151.106	1.5
27	ctl	ctl06	nan	5	2	619	0	152.606	155.605	6.5
28	enc	enc19	old52	8	2	1161	0	162.105	165.104	1.5
29	enc	enc20	old69	6	2	1151	0	166.604	169.604	6.5
30	enc	enc21	old61	5	2	1217	0	176.103	179.103	3.5
31	ctl	ctl07	nan	5	2	560	0	182.603	185.603	8
32	enc	enc22	old67	6	2	1244	0	193.602	196.601	13
33	enc	enc23	old10	5	2	1141	0	209.6	212.6	1
34	ctl	ctl08	nan	6	2	619	0	213.6	216.6	2.5
35	enc	enc24	old09	8	2	1629	0	219.099	222.099	1.5
36	enc	enc25	old51	5	2	1031	0	223.599	226.599	3.5
37	enc	enc26	old62	9	2	1372	0	230.098	233.098	2
38	enc	enc27	old43	8	2	1725	0	235.098	238.098	3
39	enc	enc28	old26	9	2	1714	0	241.097	244.097	7
40	enc	enc29	old30	8	2	1632	0	251.096	254.096	1
41	enc	enc30	old58	6	2	1400	0	255.096	258.096	0.5
42	ctl	ctl09	nan	9	2	695	0	258.596	261.595	1
43	ctl	ctl10	nan	8	2	630	0	262.595	265.595	0.5
44	enc	enc31	old05	9	2	1407	0	266.095	269.095	7
45	enc	enc32	old76	6	2	1324	0	276.094	279.094	4
46	enc	enc33	old15	9	2	1310	0	283.093	286.093	2
47	enc	enc34	old14	6	2	1240	0	288.093	291.093	2.5
48	ctl	ctl11	nan	5	2	726	0	293.592	296.592	4.5
49	enc	enc35	old72	5	2	1598	0	301.092	304.091	0.5
50	enc	enc36	old03	9	2	1301	0	304.591	307.591	3
51	ctl	ctl12	nan	9	2	771	0	310.591	313.591	2
52	enc	enc37	old07	8	2	1338	0	315.59	318.59	0.5
53	ctl	ctl13	nan	6	2	691	0	319.09	322.09	1
54	ctl	ctl14	nan	6	2	593	0	323.09	326.089	2.5
55	ctl	ctl15	nan	6	2	481	0	328.589	331.589	6.5
56	ctl	ctl16	nan	9	2	582	0	338.088	341.088	9.5
57	enc	enc38	old47	6	2	1768	0	350.587	353.587	3
58	enc	enc39	old65	6	2	1324	0	356.587	359.586	3
59	enc	enc40	old60	5	2	2002	0	362.586	365.586	1
60	enc	enc41	old70	6	2	1213	0	366.586	369.585	2
61	enc	enc42	old64	9	2	1632	0	371.585	374.585	1
62	enc	enc43	old22	8	2	1107	0	375.585	378.585	0.5
63	enc	enc44	old38	9	2	1381	0	379.084	382.084	2.5
64	enc	enc45	old19	8	2	1934	0	384.584	387.584	8.5
65	enc	enc46	old29	9	2	1130	0	396.083	399.083	5.5
66	enc	enc47	old35	6	2	1564	0	404.582	407.582	2
67	enc	enc48	old12	6	2	1066	0	409.582	412.581	6
68	enc	enc49	old48	8	2	1761	0	418.581	421.581	6
69	enc	enc50	old45	9	2	1227	0	427.58	430.58	1.5
70	enc	enc51	old01	6	2	1690	0	432.079	435.079	2
71	ctl	ctl17	nan	8	2	707	0	437.079	440.079	1.5
72	enc	enc52	old44	5	2	1803	0	441.579	444.578	4
73	ctl	ctl18	nan	9	2	906	0	448.578	451.578	0.5
74	ctl	ctl19	nan	8	2	631	0	452.078	455.077	6
75	ctl	ctl20	nan	5	2	482	0	461.077	464.077	0.5
76	enc	enc53	old56	9	2	1471	0	464.576	467.576	2.5
77	enc	enc54	old49	8	2	1893	0	470.076	473.076	1.5
78	enc	enc55	old59	8	2	2109	0	474.576	477.575	2.5
79	enc	enc56	old27	6	2	1877	0	480.075	483.075	5.5
80	ctl	ctl21	nan	5	2	708	0	488.574	491.574	4.5
81	enc	enc57	old55	9	2	1258	0	496.074	499.073	2.5
82	ctl	ctl22	nan	8	2	674	0	501.573	504.573	6.5
83	enc	enc58	old78	9	2	1605	0	511.072	514.072	6.5
84	ctl	ctl23	nan	9	2	630	0	520.571	523.571	1.5
85	ctl	ctl24	nan	8	2	674	0	525.071	528.071	4.5
86	ctl	ctl25	nan	9	2	503	0	532.57	535.57	1.5
87	ctl	ctl26	nan	5	2	435	0	537.07	540.069	0.5
88	enc	enc59	old57	5	2	1856	0	540.569	543.569	10.5
89	ctl	ctl27	nan	6	2	834	0	554.068	557.068	4.5
90	ctl	ctl28	nan	6	2	584	0	561.567	564.567	2
91	enc	enc60	old54	8	2	1110	0	566.567	569.567	1.5
92	ctl	ctl29	nan	9	2	502	0	571.067	574.066	12.5
93	enc	enc61	old04	8	2	1419	0	586.565	589.565	2
94	enc	enc62	old28	5	2	1515	0	591.565	594.564	1
95	enc	enc63	old77	8	2	1688	0	595.564	598.564	4
96	ctl	ctl30	nan	8	2	747	0	602.564	605.563	0.5
97	enc	enc64	old74	9	2	1644	0	606.063	609.063	4
98	enc	enc65	old66	8	2	1712	0	613.063	616.062	3.5
99	enc	enc66	old73	8	2	1191	0	619.562	622.562	1
100	ctl	ctl31	nan	8	2	581	0	623.562	626.561	0.5
101	ctl	ctl32	nan	5	2	627	0	627.061	630.061	2.5
102	enc	enc67	old02	5	2	1832	0	632.561	635.561	0.5
103	ctl	ctl33	nan	9	2	680	0	636.06	639.06	9
104	ctl	ctl34	nan	9	2	522	0	648.059	651.059	2
105	ctl	ctl35	nan	6	2	362	0	653.059	656.059	0.5
106	enc	enc68	old06	9	2	1601	0	656.559	659.558	2
107	ctl	ctl36	nan	6	2	1129	0	661.558	664.558	4.5
108	ctl	ctl37	nan	5	2	536	0	669.057	672.057	4.5
109	ctl	ctl38	nan	6	2	612	0	676.557	679.556	3.5
110	enc	enc69	old31	5	2	499	0	683.056	686.056	1.5
111	enc	enc70	old40	9	2	1832	0	687.556	690.555	4.5
112	enc	enc71	old37	8	2	1510	0	695.055	698.055	0.5
113	enc	enc72	old17	6	2	894	0	698.555	701.554	0.5
114	enc	enc73	old68	9	2	1518	0	702.054	705.054	5
115	ctl	ctl39	nan	9	2	682	0	710.054	713.053	4.5
116	enc	enc74	old50	5	2	1740	0	717.553	720.553	5.5
117	enc	enc75	old42	6	2	1832	0	726.052	729.052	1
118	enc	enc76	old20	5	2	1570	0	730.052	733.051	0.5
119	enc	enc77	old39	5	2	1134	0	733.551	736.551	13.5
120	enc	enc78	old21	8	2	2365	0			
