trialnumber	category	trialcode	oldnumber	correctsource	stim_resp	stim_rt	stim_acc	stim_onset	fix_onset	fix_duration
1	ctl	ctl0	nan	5	nan	0	1	4.538	7.538	0.5
2	enc	enc00	nan	8	nan	0	1	8.037	11.037	0.5
3	enc	enc000	nan	9	nan	0	1	11.537	14.537	5.5
4	ctl	ctl01	nan	8	nan	0	1	20.036	23.036	0.5
5	enc	enc01	old64	6	nan	0	1	23.536	26.536	1
6	enc	enc02	old02	5	nan	0	1	27.536	30.536	1
7	enc	enc03	old17	6	nan	0	1	31.535	34.535	1.5
8	enc	enc04	old74	9	nan	0	1	36.035	39.035	2
9	enc	enc05	old55	8	nan	0	1	41.035	44.034	3
10	enc	enc06	old47	9	nan	0	1	47.034	50.034	0.5
11	ctl	ctl02	nan	5	nan	0	1	50.534	53.534	4
12	ctl	ctl03	nan	6	nan	0	1	57.533	60.533	2.5
13	enc	enc07	old38	8	nan	0	1	63.033	66.032	1.5
14	ctl	ctl04	nan	8	nan	0	1	67.532	70.532	2
15	enc	enc08	old50	6	nan	0	1	72.532	75.532	3.5
16	enc	enc09	old15	5	nan	0	1	79.031	82.031	0.5
17	ctl	ctl05	nan	8	nan	0	1	82.531	85.531	2.5
18	enc	enc10	old31	6	nan	0	1	88.031	91.03	0.5
19	enc	enc11	old06	6	nan	0	1	91.53	94.53	1
20	enc	enc12	old14	8	nan	0	1	95.53	98.53	1.5
21	enc	enc13	old68	5	nan	0	1	100.03	103.029	2.5
22	enc	enc14	old25	9	nan	0	1	105.529	108.529	3
23	enc	enc15	old30	9	nan	0	1	111.529	114.528	1
24	enc	enc16	old27	5	nan	0	1	115.528	118.528	1.5
25	enc	enc17	old18	5	nan	0	1	120.028	123.028	1.5
26	ctl	ctl06	nan	5	nan	0	1	124.527	127.527	1
27	enc	enc18	old11	5	nan	0	1	128.527	131.527	2.5
28	enc	enc19	old44	8	nan	0	1	134.027	137.026	2.5
29	ctl	ctl07	nan	5	nan	0	1	139.526	142.526	0.5
30	enc	enc20	old66	6	nan	0	1	143.026	146.026	5.5
31	enc	enc21	old63	5	nan	0	1	151.525	154.525	5.5
32	enc	enc22	old78	6	nan	0	1	160.024	163.024	2
33	enc	enc23	old07	5	nan	0	1	165.024	168.024	1
34	enc	enc24	old13	8	nan	0	1	169.024	172.023	3
35	enc	enc25	old42	5	nan	0	1	175.023	178.023	3.5
36	enc	enc26	old53	9	nan	0	1	181.523	184.522	0.5
37	ctl	ctl08	nan	6	nan	0	1	185.022	188.022	1.5
38	ctl	ctl09	nan	9	nan	0	1	189.522	192.522	9.5
39	ctl	ctl10	nan	8	nan	0	1	202.021	205.021	2
40	ctl	ctl11	nan	5	nan	0	1	207.02	210.02	2
41	enc	enc27	old40	8	nan	0	1	212.02	215.02	1
42	ctl	ctl12	nan	9	nan	0	1	216.02	219.019	0.5
43	enc	enc28	old23	9	nan	0	1	219.519	222.519	0.5
44	ctl	ctl13	nan	6	nan	0	1	223.019	226.019	2
45	enc	enc29	old28	8	nan	0	1	228.019	231.018	4.5
46	enc	enc30	old54	6	nan	0	1	235.518	238.518	3.5
47	enc	enc31	old03	9	nan	0	1	242.017	245.017	8
48	enc	enc32	old69	6	nan	0	1	253.016	256.016	9
49	enc	enc33	old26	9	nan	0	1	265.015	268.015	0.5
50	enc	enc34	old20	6	nan	0	1	268.515	271.515	2.5
51	ctl	ctl14	nan	6	nan	0	1	274.015	277.014	8.5
52	enc	enc35	old71	5	nan	0	1	285.514	288.513	0.5
53	enc	enc36	old10	9	nan	0	1	289.013	292.013	5.5
54	enc	enc37	old08	8	nan	0	1	297.513	300.512	3
55	enc	enc38	old49	6	nan	0	1	303.512	306.512	4
56	ctl	ctl15	nan	6	nan	0	1	310.512	313.511	6.5
57	ctl	ctl16	nan	9	nan	0	1	320.011	323.011	0.5
58	enc	enc39	old61	6	nan	0	1	323.51	326.51	11.5
59	enc	enc40	old65	5	nan	0	1	338.009	341.009	9.5
60	enc	enc41	old73	6	nan	0	1	350.508	353.508	1
61	ctl	ctl17	nan	8	nan	0	1	354.508	357.508	5.5
62	enc	enc42	old56	9	nan	0	1	363.007	366.007	1.5
63	enc	enc43	old21	8	nan	0	1	367.507	370.506	1
64	enc	enc44	old36	9	nan	0	1	371.506	374.506	2
65	ctl	ctl18	nan	9	nan	0	1	376.506	379.506	3.5
66	enc	enc45	old22	8	nan	0	1	383.005	386.005	1.5
67	enc	enc46	old37	9	nan	0	1	387.505	390.505	0.5
68	ctl	ctl19	nan	8	nan	0	1	391.005	394.004	2.5
69	ctl	ctl20	nan	5	nan	0	1	396.504	399.504	0.5
70	ctl	ctl21	nan	5	nan	0	1	400.004	403.004	2.5
71	ctl	ctl22	nan	8	nan	0	1	405.503	408.503	2
72	ctl	ctl23	nan	9	nan	0	1	410.503	413.503	11
73	ctl	ctl24	nan	8	nan	0	1	424.502	427.502	1
74	enc	enc47	old34	6	nan	0	1	428.501	431.501	1.5
75	enc	enc48	old01	6	nan	0	1	433.001	436.001	0.5
76	enc	enc49	old48	8	nan	0	1	436.501	439.5	0.5
77	enc	enc50	old41	9	nan	0	1	440	443	2
78	enc	enc51	old12	6	nan	0	1	445	448	1
79	ctl	ctl25	nan	9	nan	0	1	449	451.999	2
80	ctl	ctl26	nan	5	nan	0	1	453.999	456.999	4
81	enc	enc52	old46	5	nan	0	1	460.999	463.998	4.5
82	enc	enc53	old62	9	nan	0	1	468.498	471.498	8.5
83	enc	enc54	old45	8	nan	0	1	479.997	482.997	1
84	enc	enc55	old58	8	nan	0	1	483.997	486.996	6
85	ctl	ctl27	nan	6	nan	0	1	492.996	495.996	1.5
86	enc	enc56	old35	6	nan	0	1	497.496	500.495	13
87	ctl	ctl28	nan	6	nan	0	1	513.494	516.494	1.5
88	enc	enc57	old60	9	nan	0	1	517.994	520.994	1.5
89	enc	enc58	old67	9	nan	0	1	522.493	525.493	7.5
90	enc	enc59	old59	5	nan	0	1	532.993	535.992	1.5
91	ctl	ctl29	nan	9	nan	0	1	537.492	540.492	3.5
92	enc	enc60	old57	8	nan	0	1	543.992	546.991	1
93	ctl	ctl30	nan	8	nan	0	1	547.991	550.991	1.5
94	enc	enc61	old09	8	nan	0	1	552.491	555.491	3.5
95	ctl	ctl31	nan	8	nan	0	1	558.99	561.99	4.5
96	enc	enc62	old39	5	nan	0	1	566.49	569.489	3
97	ctl	ctl32	nan	5	nan	0	1	572.489	575.489	0.5
98	enc	enc63	old75	8	nan	0	1	575.989	578.989	8
99	enc	enc64	old76	9	nan	0	1	586.988	589.988	5
100	ctl	ctl33	nan	9	nan	0	1	594.987	597.987	0.5
101	ctl	ctl34	nan	9	nan	0	1	598.487	601.487	1
102	enc	enc65	old77	8	nan	0	1	602.487	605.486	11.5
103	enc	enc66	old70	8	nan	0	1	616.985	619.985	2.5
104	ctl	ctl35	nan	6	nan	0	1	622.485	625.485	2
105	enc	enc67	old05	5	nan	0	1	627.484	630.484	0.5
106	enc	enc68	old04	9	nan	0	1	630.984	633.984	1
107	enc	enc69	old33	5	nan	0	1	634.984	637.984	1
108	enc	enc70	old52	9	nan	0	1	638.983	641.983	0.5
109	enc	enc71	old29	8	nan	0	1	642.483	645.483	7.5
110	ctl	ctl36	nan	6	nan	0	1	652.982	655.982	15
111	enc	enc72	old19	6	nan	0	1	670.981	673.98	0.5
112	enc	enc73	old72	9	nan	0	1	674.48	677.48	1
113	ctl	ctl37	nan	5	nan	0	1	678.48	681.48	0.5
114	ctl	ctl38	nan	6	nan	0	1	681.98	684.98	9
115	enc	enc74	old51	5	nan	0	1	693.979	696.978	6
116	enc	enc75	old43	6	nan	0	1	702.978	705.978	10.5
117	ctl	ctl39	nan	9	nan	0	1	716.477	719.477	5
118	enc	enc76	old16	5	nan	0	1	724.476	727.476	1
119	enc	enc77	old32	5	nan	0	1	728.476	731.476	18.5
120	enc	enc78	old24	8	nan	0	1			
