,trialnumber,category,trialcode,oldnumber,correctsource,stim_resp,stim_rt,stim_acc,onset,fix_onset,fix_duration
0,1,ctl,ctl0,,5,3,956,0,0.047,3.047,1.5
1,2,enc,enc00,,8,3,1374,0,4.546,7.546,0.5
2,3,enc,enc000,,9,3,788,0,8.046,11.046,0.5
3,4,ctl,ctl01,,8,3,844,0,11.546,14.545,5.5
4,5,enc,enc01,old54,6,3,1034,0,20.045,23.045,0.5
5,6,enc,enc02,old10,5,3,1029,0,23.545,26.544,1
6,7,enc,enc03,old20,6,3,1313,0,27.544,30.544,1
7,8,enc,enc04,old68,9,3,954,0,31.544,34.544,1.5
8,9,enc,enc05,old53,8,3,919,0,36.043,39.043,2
9,10,enc,enc06,old48,9,3,1111,0,41.043,44.043,3
10,11,ctl,ctl02,,5,3,978,0,47.042,50.042,0.5
11,12,ctl,ctl03,,6,3,1221,0,50.542,53.542,4
12,13,enc,enc07,old29,8,3,1007,0,57.541,60.541,2.5
13,14,ctl,ctl04,,8,3,715,0,63.041,66.041,1.5
14,15,enc,enc08,old45,6,3,848,0,67.541,70.54,2
15,16,enc,enc09,old21,5,3,1371,0,72.54,75.54,3.5
16,17,ctl,ctl05,,8,3,778,0,79.039,82.039,0.5
17,18,enc,enc10,old34,6,3,1123,0,82.539,85.539,2.5
18,19,enc,enc11,old01,6,3,941,0,88.039,91.038,0.5
19,20,enc,enc12,old22,8,3,774,0,91.538,94.538,1
20,21,enc,enc13,old69,5,3,982,0,95.538,98.538,1.5
21,22,enc,enc14,old16,9,3,1020,0,100.037,103.037,2.5
22,23,enc,enc15,old30,9,3,898,0,105.537,108.537,3
23,24,enc,enc16,old27,5,3,1136,0,111.536,114.536,1
24,25,enc,enc17,old15,5,3,978,0,115.536,118.536,1.5
25,26,ctl,ctl06,,5,3,738,0,120.036,123.035,1.5
26,27,enc,enc18,old07,5,3,1002,0,124.535,127.535,1
27,28,enc,enc19,old50,8,3,932,0,128.535,131.535,2.5
28,29,ctl,ctl07,,5,3,673,0,134.034,137.034,2.5
29,30,enc,enc20,old76,6,3,1096,0,139.534,142.533,0.5
30,31,enc,enc21,old61,5,3,1074,0,143.033,146.033,5.5
31,32,enc,enc22,old70,6,3,726,0,151.533,154.532,5.5
32,33,enc,enc23,old11,5,3,894,0,160.032,163.032,2
33,34,enc,enc24,old09,8,3,872,0,165.031,168.031,1
34,35,enc,enc25,old52,5,3,953,0,169.031,172.031,3
35,36,enc,enc26,old65,9,3,889,0,175.03,178.03,3.5
36,37,ctl,ctl08,,6,3,757,0,181.53,184.53,0.5
37,38,ctl,ctl09,,9,3,897,0,185.03,188.029,1.5
38,39,ctl,ctl10,,8,3,442,0,189.529,192.529,9.5
39,40,ctl,ctl11,,5,3,616,0,202.028,205.028,2
40,41,enc,enc27,old42,8,3,837,0,207.027,210.027,2
41,42,ctl,ctl12,,9,3,768,0,212.027,215.027,1
42,43,enc,enc28,old23,9,3,1186,0,216.027,219.026,0.5
43,44,ctl,ctl13,,6,3,637,0,219.526,222.526,0.5
44,45,enc,enc29,old36,8,3,820,0,223.026,226.026,2
45,46,enc,enc30,old59,6,3,1174,0,228.026,231.025,4.5
46,47,enc,enc31,old03,9,3,861,0,235.525,238.525,3.5
47,48,enc,enc32,old72,6,3,1206,0,242.024,245.024,8
48,49,enc,enc33,old26,9,3,1366,0,253.023,256.023,9
49,50,enc,enc34,old24,6,3,776,0,265.022,268.022,0.5
50,51,ctl,ctl14,,6,3,747,0,268.522,271.521,2.5
51,52,enc,enc35,old71,5,3,686,0,274.021,277.021,8.5
52,53,enc,enc36,old05,9,3,757,0,285.52,288.52,0.5
53,54,enc,enc37,old12,8,3,898,0,289.02,292.02,5.5
54,55,enc,enc38,old49,6,3,784,0,297.519,300.519,3
55,56,ctl,ctl15,,6,3,741,0,303.518,306.518,4
56,57,ctl,ctl16,,9,3,887,0,310.518,313.518,6.5
57,58,enc,enc39,old60,6,3,892,0,320.017,323.017,0.5
58,59,enc,enc40,old55,5,3,712,0,323.517,326.516,11.5
59,60,enc,enc41,old75,6,3,862,0,338.015,341.015,9.5
60,61,ctl,ctl17,,8,3,742,0,350.514,353.514,1
61,62,enc,enc42,old64,9,3,1003,0,354.514,357.513,5.5
62,63,enc,enc43,old14,8,3,920,0,363.013,366.013,1.5
63,64,enc,enc44,old35,9,3,1030,0,367.513,370.512,1
64,65,ctl,ctl18,,9,3,710,0,371.512,374.512,2
65,66,enc,enc45,old17,8,3,982,0,376.512,379.511,3.5
66,67,enc,enc46,old28,9,3,887,0,383.011,386.011,1.5
67,68,ctl,ctl19,,8,3,752,0,387.511,390.51,0.5
68,69,ctl,ctl20,,5,3,627,0,391.01,394.01,2.5
69,70,ctl,ctl21,,5,3,691,0,396.51,399.51,0.5
70,71,ctl,ctl22,,8,3,757,0,400.009,403.009,2.5
71,72,ctl,ctl23,,9,3,517,0,405.509,408.509,2
72,73,ctl,ctl24,,8,3,474,0,410.508,413.508,11
73,74,enc,enc47,old39,6,3,749,0,424.507,427.507,1
74,75,enc,enc48,old02,6,3,784,0,428.507,431.507,1.5
75,76,enc,enc49,old43,8,3,953,0,433.006,436.006,0.5
76,77,enc,enc50,old41,9,3,952,0,436.506,439.506,0.5
77,78,enc,enc51,old13,6,3,943,0,440.006,443.005,2
78,79,ctl,ctl25,,9,3,847,0,445.005,448.005,1
79,80,ctl,ctl26,,5,3,699,0,449.005,452.005,2
80,81,enc,enc52,old40,5,3,533,0,454.004,457.004,4
81,82,enc,enc53,old57,9,3,668,0,461.004,464.003,4.5
82,83,enc,enc54,old44,8,3,743,0,468.503,471.503,8.5
83,84,enc,enc55,old62,8,3,971,0,480.002,483.002,1
84,85,ctl,ctl27,,6,3,809,0,484.002,487.001,6
85,86,enc,enc56,old33,6,3,655,0,493.001,496.001,1.5
86,87,ctl,ctl28,,6,3,655,0,497.5,500.5,13
87,88,enc,enc57,old56,9,3,1024,0,513.499,516.499,1.5
88,89,enc,enc58,old74,9,3,743,0,517.998,520.998,1.5
89,90,enc,enc59,old58,5,3,833,0,522.498,525.498,7.5
90,91,ctl,ctl29,,9,3,917,0,532.997,535.997,1.5
91,92,enc,enc60,old63,8,3,778,0,537.497,540.496,3.5
92,93,ctl,ctl30,,8,3,703,0,543.996,546.996,1
93,94,enc,enc61,old06,8,3,646,0,547.996,550.995,1.5
94,95,ctl,ctl31,,8,3,634,0,552.495,555.495,3.5
95,96,enc,enc62,old32,5,3,1027,0,558.995,561.994,4.5
96,97,ctl,ctl32,,5,3,933,0,566.494,569.494,3
97,98,enc,enc63,old67,8,3,634,0,572.493,575.493,0.5
98,99,enc,enc64,old77,9,3,768,0,575.993,578.993,8
99,100,ctl,ctl33,,9,3,1185,0,586.992,589.992,5
100,101,ctl,ctl34,,9,3,500,0,594.991,597.991,0.5
101,102,enc,enc65,old78,8,3,695,0,598.491,601.491,1
102,103,enc,enc66,old73,8,3,553,0,602.491,605.49,11.5
103,104,ctl,ctl35,,6,3,601,0,616.989,619.989,2.5
104,105,enc,enc67,old04,5,3,863,0,622.489,625.488,2
105,106,enc,enc68,old08,9,3,929,0,627.488,630.488,0.5
106,107,enc,enc69,old31,5,3,718,0,630.988,633.988,1
107,108,enc,enc70,old51,9,3,685,0,634.988,637.987,1
108,109,enc,enc71,old37,8,3,695,0,638.987,641.987,0.5
109,110,ctl,ctl36,,6,3,792,0,642.487,645.487,7.5
110,111,enc,enc72,old25,6,3,579,0,652.986,655.986,15
111,112,enc,enc73,old66,9,3,635,0,670.984,673.984,0.5
112,113,ctl,ctl37,,5,3,510,0,674.484,677.484,1
113,114,ctl,ctl38,,6,3,651,0,678.483,681.483,0.5
114,115,enc,enc74,old46,5,3,579,0,681.983,684.983,9
115,116,enc,enc75,old47,6,3,709,0,693.982,696.982,6
116,117,ctl,ctl39,,9,3,676,0,702.981,705.981,10.5
117,118,enc,enc76,old18,5,3,611,0,716.48,719.48,5
118,119,enc,enc77,old38,5,3,645,0,724.479,727.479,1
119,120,enc,enc78,old19,8,3,675,0,728.479,731.479,18.5
