trialnumber	category	trialcode	oldnumber	correctsource	stim_resp	stim_rt	stim_acc	stim_onset	fix_onset	fix_duration
1	ctl	ctl0	nan	5	2	832	0	4.607	7.606	0.5
2	enc	enc00	nan	8	nan	0	1	8.106	11.106	0.5
3	enc	enc000	nan	9	2	1319	0	11.606	14.606	5.5
4	ctl	ctl01	nan	8	2	947	0	20.105	23.105	0.5
5	enc	enc01	old59	6	nan	0	1	23.605	26.605	1
6	enc	enc02	old06	5	2	698	0	27.605	30.604	1
7	enc	enc03	old24	6	2	777	0	31.604	34.604	1.5
8	enc	enc04	old77	9	nan	0	1	36.104	39.104	2
9	enc	enc05	old61	8	nan	0	1	41.103	44.103	3
10	enc	enc06	old42	9	nan	0	1	47.103	50.103	0.5
11	ctl	ctl02	nan	5	2	651	0	50.603	53.619	4
12	ctl	ctl03	nan	6	2	948	0	57.602	60.602	2.5
13	enc	enc07	old29	8	nan	0	1	63.101	66.101	1.5
14	ctl	ctl04	nan	8	2	790	0	67.601	70.601	2
15	enc	enc08	old44	6	nan	0	1	72.604	75.617	3.5
16	enc	enc09	old26	5	nan	0	1	79.1	82.1	0.5
17	ctl	ctl05	nan	8	2	718	0	82.6	85.599	2.5
18	enc	enc10	old36	6	nan	0	1	88.099	91.099	0.5
19	enc	enc11	old13	6	nan	0	1	91.599	94.6	1
20	enc	enc12	old19	8	nan	0	1	95.599	98.598	1.5
21	enc	enc13	old75	5	2	512	0	100.098	103.098	2.5
22	enc	enc14	old22	9	nan	0	1	105.598	108.597	3
23	enc	enc15	old35	9	nan	0	1	111.614	114.613	1
24	enc	enc16	old34	5	nan	0	1	115.613	118.613	1.5
25	enc	enc17	old17	5	nan	0	1	120.113	123.113	1.5
26	ctl	ctl06	nan	5	2	957	0	124.613	127.612	1
27	enc	enc18	old10	5	nan	0	1	128.612	131.612	2.5
28	enc	enc19	old43	8	nan	0	1	134.112	137.111	2.5
29	ctl	ctl07	nan	5	2	826	0	139.611	142.611	0.5
30	enc	enc20	old66	6	nan	0	1	143.111	146.111	5.5
31	enc	enc21	old60	5	nan	0	1	151.61	154.61	5.5
32	enc	enc22	old68	6	nan	0	1	160.109	163.109	2
33	enc	enc23	old01	5	nan	0	1	165.109	168.109	1
34	enc	enc24	old05	8	nan	0	1	169.109	172.108	3
35	enc	enc25	old47	5	nan	0	1	175.108	178.108	3.5
36	enc	enc26	old54	9	nan	0	1	181.607	184.607	0.5
37	ctl	ctl08	nan	6	2	688	0	185.107	188.107	1.5
38	ctl	ctl09	nan	9	2	1221	0	189.607	192.607	9.5
39	ctl	ctl10	nan	8	2	642	0	202.106	205.105	2
40	ctl	ctl11	nan	5	2	767	0	207.105	210.105	2
41	enc	enc27	old51	8	nan	0	1	212.105	215.104	1
42	ctl	ctl12	nan	9	2	799	0	216.104	219.104	0.5
43	enc	enc28	old20	9	nan	0	1	219.604	222.604	0.5
44	ctl	ctl13	nan	6	2	676	0	223.104	226.103	2
45	enc	enc29	old28	8	nan	0	1	228.103	231.103	4.5
46	enc	enc30	old55	6	nan	0	1	235.603	238.602	3.5
47	enc	enc31	old08	9	nan	0	1	242.102	245.102	8
48	enc	enc32	old74	6	nan	0	1	253.101	256.101	9
49	enc	enc33	old15	9	nan	0	1	265.1	268.1	0.5
50	enc	enc34	old14	6	nan	0	1	268.6	271.599	2.5
51	ctl	ctl14	nan	6	nan	0	1	274.099	277.099	8.5
52	enc	enc35	old78	5	nan	0	1	285.598	288.598	0.5
53	enc	enc36	old03	9	nan	0	1	289.098	292.098	5.5
54	enc	enc37	old07	8	nan	0	1	297.597	300.597	3
55	enc	enc38	old49	6	nan	0	1	303.597	306.597	4
56	ctl	ctl15	nan	6	2	631	0	310.596	313.596	6.5
57	ctl	ctl16	nan	9	2	695	0	320.095	323.095	0.5
58	enc	enc39	old53	6	nan	0	1	323.595	326.595	11.5
59	enc	enc40	old58	5	nan	0	1	338.093	341.093	9.5
60	enc	enc41	old67	6	nan	0	1	350.592	353.592	1
61	ctl	ctl17	nan	8	2	831	0	354.596	357.608	5.5
62	enc	enc42	old62	9	nan	0	1	363.108	366.108	1.5
63	enc	enc43	old18	8	nan	0	1	367.608	370.607	1
64	enc	enc44	old38	9	nan	0	1	371.607	374.607	2
65	ctl	ctl18	nan	9	2	1587	0	376.607	379.606	3.5
66	enc	enc45	old21	8	nan	0	1	383.106	386.106	1.5
67	enc	enc46	old27	9	nan	0	1	387.606	390.605	0.5
68	ctl	ctl19	nan	8	2	675	0	391.105	394.105	2.5
69	ctl	ctl20	nan	5	2	615	0	396.605	399.605	0.5
70	ctl	ctl21	nan	5	2	800	0	400.105	403.104	2.5
71	ctl	ctl22	nan	8	2	753	0	405.604	408.604	2
72	ctl	ctl23	nan	9	2	876	0	410.604	413.603	11
73	ctl	ctl24	nan	8	2	584	0	424.602	427.602	1
74	enc	enc47	old31	6	nan	0	1	428.602	431.602	1.5
75	enc	enc48	old09	6	nan	0	1	433.102	436.101	0.5
76	enc	enc49	old50	8	nan	0	1	436.601	439.601	0.5
77	enc	enc50	old40	9	nan	0	1	440.101	443.101	2
78	enc	enc51	old04	6	nan	0	1	445.101	448.1	1
79	ctl	ctl25	nan	9	2	695	0	449.1	452.1	2
80	ctl	ctl26	nan	5	nan	0	1	454.1	457.099	4
81	enc	enc52	old48	5	nan	0	1	461.099	464.099	4.5
82	enc	enc53	old65	9	nan	0	1	468.598	471.598	8.5
83	enc	enc54	old46	8	nan	0	1	480.097	483.097	1
84	enc	enc55	old64	8	nan	0	1	484.097	487.097	6
85	ctl	ctl27	nan	6	2	1519	0	493.096	496.096	1.5
86	enc	enc56	old39	6	nan	0	1	497.596	500.596	13
87	ctl	ctl28	nan	6	2	791	0	513.595	516.594	1.5
88	enc	enc57	old56	9	nan	0	1	518.094	521.094	1.5
89	enc	enc58	old73	9	nan	0	1	522.594	525.593	7.5
90	enc	enc59	old63	5	nan	0	1	533.093	536.092	1.5
91	ctl	ctl29	nan	9	2	937	0	537.592	540.592	3.5
92	enc	enc60	old57	8	nan	0	1	544.092	547.091	1
93	ctl	ctl30	nan	8	2	653	0	548.091	551.091	1.5
94	enc	enc61	old12	8	nan	0	1	552.591	555.591	3.5
95	ctl	ctl31	nan	8	2	751	0	559.09	562.09	4.5
96	enc	enc62	old32	5	nan	0	1	566.59	569.589	3
97	ctl	ctl32	nan	5	2	896	0	572.589	575.589	0.5
98	enc	enc63	old71	8	nan	0	1	576.089	579.089	8
99	enc	enc64	old72	9	nan	0	1	587.088	590.088	5
100	ctl	ctl33	nan	9	nan	0	1	595.087	598.087	0.5
101	ctl	ctl34	nan	9	2	654	0	598.587	601.587	1
102	enc	enc65	old76	8	nan	0	1	602.586	605.586	11.5
103	enc	enc66	old69	8	nan	0	1	617.085	620.085	2.5
104	ctl	ctl35	nan	6	2	695	0	622.585	625.584	2
105	enc	enc67	old02	5	nan	0	1	627.601	630.601	0.5
106	enc	enc68	old11	9	nan	0	1	631.101	634.1	1
107	enc	enc69	old37	5	nan	0	1	635.1	638.1	1
108	enc	enc70	old45	9	nan	0	1	639.1	642.1	0.5
109	enc	enc71	old33	8	nan	0	1	642.6	645.599	7.5
110	ctl	ctl36	nan	6	nan	0	1	653.099	656.098	15
111	enc	enc72	old23	6	nan	0	1	671.097	674.097	0.5
112	enc	enc73	old70	9	nan	0	1	674.597	677.596	1
113	ctl	ctl37	nan	5	2	641	0	678.596	681.596	0.5
114	ctl	ctl38	nan	6	2	761	0	682.096	685.096	9
115	enc	enc74	old41	5	nan	0	1	694.095	697.095	6
116	enc	enc75	old52	6	nan	0	1	703.094	706.094	10.5
117	ctl	ctl39	nan	9	2	741	0	716.593	719.593	5
118	enc	enc76	old25	5	nan	0	1	724.592	727.592	1
119	enc	enc77	old30	5	2	1238	0	728.592	731.592	18.5
120	enc	enc78	old16	8	nan	0	1			
