,trialnumber,category,trialcode,oldnumber,correctsource,stim_resp,stim_rt,stim_acc,onset,fix_onset,fix_duration
0,1,enc,enc00,,8,3,788,0,0.181,3.181,4.5
1,2,enc,enc000,,9,3,746,0,7.68,10.68,0.5
2,3,ctl,ctl0,,8,3,743,0,11.18,14.18,0.5
3,4,enc,enc01,old56,6,3,1588,0,14.68,17.679,6.5
4,5,enc,enc02,old11,5,3,847,0,24.179,27.179,2
5,6,enc,enc03,old26,6,3,1093,0,29.178,32.178,1.5
6,7,enc,enc04,old70,9,3,1502,0,33.678,36.678,1
7,8,enc,enc05,old65,8,3,966,0,37.678,40.678,8.5
8,9,enc,enc06,old52,9,3,1091,0,49.177,52.177,2
9,10,enc,enc07,old34,8,3,845,0,54.176,57.176,2.5
10,11,ctl,ctl01,,8,3,719,0,59.676,62.676,1.5
11,12,ctl,ctl02,,5,3,976,0,64.176,67.175,1.5
12,13,enc,enc08,old51,6,3,1220,0,68.675,71.675,0.5
13,14,ctl,ctl03,,6,3,778,0,72.175,75.175,0.5
14,15,enc,enc09,old25,5,3,1516,0,75.675,78.674,2
15,16,enc,enc10,old29,6,3,1442,0,80.674,83.674,1.5
16,17,ctl,ctl04,,8,3,607,0,85.174,88.174,2
17,18,enc,enc11,old07,6,3,1168,0,90.173,93.173,7.5
18,19,enc,enc12,old18,8,3,1104,0,100.673,103.672,5
19,20,enc,enc13,old78,5,3,1336,0,108.672,111.672,1.5
20,21,enc,enc14,old14,9,3,1534,0,113.172,116.171,3
21,22,enc,enc15,old32,9,3,868,0,119.171,122.171,1
22,23,enc,enc16,old36,5,3,1249,0,123.171,126.171,1.5
23,24,enc,enc17,old24,5,3,1470,0,127.67,130.67,8.5
24,25,enc,enc18,old02,5,3,2030,0,139.169,142.169,2
25,26,ctl,ctl05,,8,3,723,0,144.169,147.169,1
26,27,ctl,ctl06,,5,3,627,0,148.169,151.168,1.5
27,28,enc,enc19,old47,8,3,1447,0,152.668,155.668,6.5
28,29,enc,enc20,old76,6,3,1387,0,162.168,165.167,1.5
29,30,enc,enc21,old58,5,3,1848,0,166.667,169.667,6.5
30,31,ctl,ctl07,,5,3,674,0,176.166,179.166,3.5
31,32,enc,enc22,old72,6,3,1972,0,182.666,185.666,8
32,33,enc,enc23,old09,5,3,1425,0,193.665,196.665,13
33,34,ctl,ctl08,,6,3,632,0,209.664,212.663,1
34,35,enc,enc24,old03,8,3,1242,0,213.663,216.663,2.5
35,36,enc,enc25,old44,5,3,1797,0,219.163,222.163,1.5
36,37,enc,enc26,old54,9,3,1428,0,223.662,226.662,3.5
37,38,enc,enc27,old46,8,3,2281,0,230.162,233.162,2
38,39,enc,enc28,old15,9,3,1322,0,235.162,238.161,3
39,40,enc,enc29,old37,8,3,1489,0,241.161,244.161,7
40,41,enc,enc30,old63,6,3,1685,0,251.16,254.16,1
41,42,ctl,ctl09,,9,3,677,0,255.16,258.16,0.5
42,43,ctl,ctl10,,8,3,708,0,258.66,261.659,1
43,44,enc,enc31,old10,9,3,1745,0,262.659,265.659,0.5
44,45,enc,enc32,old69,6,3,1687,0,266.159,269.159,7
45,46,enc,enc33,old17,9,3,1527,0,276.158,279.158,4
46,47,enc,enc34,old19,6,3,2537,0,283.158,286.157,2
47,48,ctl,ctl11,,5,3,651,0,288.157,291.157,2.5
48,49,enc,enc35,old73,5,3,2213,0,293.657,296.657,4.5
49,50,enc,enc36,old01,9,3,1660,0,301.156,304.156,0.5
50,51,ctl,ctl12,,9,3,651,0,304.656,307.656,3
51,52,enc,enc37,old04,8,3,1090,0,310.655,313.655,2
52,53,ctl,ctl13,,6,3,676,0,315.655,318.655,0.5
53,54,ctl,ctl14,,6,3,641,0,319.155,322.154,1
54,55,ctl,ctl15,,6,3,569,0,323.154,326.154,2.5
55,56,ctl,ctl16,,9,3,506,0,328.654,331.654,6.5
56,57,enc,enc38,old50,6,3,1881,0,338.153,341.153,9.5
57,58,enc,enc39,old57,6,3,1609,0,350.652,353.652,3
58,59,enc,enc40,old62,5,3,1542,0,356.652,359.651,3
59,60,enc,enc41,old67,6,3,1267,0,362.651,365.651,1
60,61,enc,enc42,old55,9,3,1197,0,366.651,369.651,2
61,62,enc,enc43,old16,8,3,1142,0,371.65,374.65,1
62,63,enc,enc44,old33,9,3,1444,0,375.65,378.65,0.5
63,64,enc,enc45,old23,8,3,1710,0,379.15,382.149,2.5
64,65,enc,enc46,old35,9,3,947,0,384.649,387.649,8.5
65,66,enc,enc47,old39,6,3,483,0,396.148,399.148,5.5
66,67,enc,enc48,old06,6,3,1275,0,404.648,407.647,2
67,68,enc,enc49,old40,8,3,1370,0,409.647,412.647,6
68,69,enc,enc50,old48,9,3,959,0,418.647,421.646,6
69,70,enc,enc51,old12,6,3,1095,0,427.646,430.646,1.5
70,71,ctl,ctl17,,8,3,724,0,432.145,435.145,2
71,72,enc,enc52,old49,5,3,2062,0,437.145,440.145,1.5
72,73,ctl,ctl18,,9,3,668,0,441.645,444.644,4
73,74,ctl,ctl19,,8,3,623,0,448.644,451.644,0.5
74,75,ctl,ctl20,,5,3,669,0,452.144,455.143,6
75,76,enc,enc53,old59,9,3,2725,0,461.143,464.143,0.5
76,77,enc,enc54,old45,8,3,2162,0,464.643,467.642,2.5
77,78,enc,enc55,old60,8,3,1807,0,470.142,473.142,1.5
78,79,enc,enc56,old30,6,,0,1,474.642,477.642,2.5
79,80,ctl,ctl21,,5,3,620,0,480.141,483.141,5.5
80,81,enc,enc57,old61,9,3,1729,0,488.641,491.641,4.5
81,82,ctl,ctl22,,8,3,599,0,496.14,499.14,2.5
82,83,enc,enc58,old74,9,3,2093,0,501.64,504.639,6.5
83,84,ctl,ctl23,,9,3,625,0,511.139,514.139,6.5
84,85,ctl,ctl24,,8,3,681,0,520.638,523.638,1.5
85,86,ctl,ctl25,,9,3,576,0,525.138,528.138,4.5
86,87,ctl,ctl26,,5,3,568,0,532.637,535.637,1.5
87,88,enc,enc59,old64,5,3,1722,0,537.137,540.137,0.5
88,89,ctl,ctl27,,6,3,657,0,540.636,543.636,10.5
89,90,ctl,ctl28,,6,3,604,0,554.135,557.135,4.5
90,91,enc,enc60,old53,8,3,1200,0,561.635,564.634,2
91,92,ctl,ctl29,,9,3,535,0,566.634,569.634,1.5
92,93,enc,enc61,old13,8,3,1399,0,571.134,574.134,12.5
93,94,enc,enc62,old31,5,3,1729,0,586.633,589.632,2
94,95,enc,enc63,old66,8,3,1786,0,591.632,594.632,1
95,96,ctl,ctl30,,8,3,779,0,595.632,598.632,4
96,97,enc,enc64,old71,9,3,1330,0,602.631,605.631,0.5
97,98,enc,enc65,old68,8,3,1151,0,606.131,609.131,4
98,99,enc,enc66,old77,8,,0,1,613.131,616.13,3.5
99,100,ctl,ctl31,,8,3,704,0,619.63,622.63,1
100,101,ctl,ctl32,,5,3,677,0,623.63,626.629,0.5
101,102,enc,enc67,old05,5,3,1571,0,627.129,630.129,2.5
102,103,ctl,ctl33,,9,3,571,0,632.629,635.629,0.5
103,104,ctl,ctl34,,9,3,558,0,636.129,639.128,9
104,105,ctl,ctl35,,6,3,591,0,648.128,651.127,2
105,106,enc,enc68,old08,9,3,978,0,653.127,656.127,0.5
106,107,ctl,ctl36,,6,3,646,0,656.627,659.627,2
107,108,ctl,ctl37,,5,3,529,0,661.627,664.626,4.5
108,109,ctl,ctl38,,6,3,581,0,669.126,672.126,4.5
109,110,enc,enc69,old38,5,3,1021,0,676.625,679.625,3.5
110,111,enc,enc70,old41,9,3,998,0,683.125,686.125,1.5
111,112,enc,enc71,old28,8,3,1542,0,687.624,690.624,4.5
112,113,enc,enc72,old21,6,3,1656,0,695.124,698.124,0.5
113,114,enc,enc73,old75,9,3,1822,0,698.624,701.623,0.5
114,115,ctl,ctl39,,9,3,654,0,702.123,705.123,5
115,116,enc,enc74,old43,5,3,1330,0,710.123,713.122,4.5
116,117,enc,enc75,old42,6,3,1059,0,717.622,720.622,5.5
117,118,enc,enc76,old22,5,3,1376,0,726.121,729.121,1
118,119,enc,enc77,old27,5,3,1949,0,730.121,733.121,0.5
119,120,enc,enc78,old20,8,3,1634,0,733.621,736.62,13.5
