trialnumber	category	trialcode	oldnumber	correctsource	stim_resp	stim_rt	stim_acc	stim_onset	fix_onset	fix_duration
1	ctl	ctl0	nan	9	nan	0	1	5.077	8.077	3
2	enc	enc00	nan	5	nan	0	1	11.077	14.076	2
3	enc	enc000	nan	9	nan	0	1	16.076	19.076	1
4	ctl	ctl01	nan	6	nan	0	1	20.076	23.076	8
5	enc	enc01	old64	8	nan	0	1	31.075	34.075	7.5
6	enc	enc02	old10	5	nan	0	1	41.574	44.574	0.5
7	enc	enc03	old61	5	nan	0	1	45.074	48.074	6
8	enc	enc04	old43	6	nan	0	1	54.073	57.073	2
9	enc	enc05	old50	5	nan	0	1	59.073	62.073	2
10	enc	enc06	old71	9	nan	0	1	64.073	67.072	4
11	ctl	ctl02	nan	5	nan	0	1	71.072	74.072	2.5
12	ctl	ctl03	nan	6	nan	0	1	76.572	79.571	1.5
13	ctl	ctl04	nan	6	nan	0	1	81.071	84.071	5
14	ctl	ctl05	nan	9	nan	0	1	89.071	92.07	1
15	enc	enc07	old56	6	nan	0	1	93.07	96.07	3
16	enc	enc08	old09	8	nan	0	1	99.07	102.07	3
17	ctl	ctl06	nan	9	nan	0	1	105.069	108.069	2.5
18	enc	enc09	old47	9	nan	0	1	110.569	113.569	6.5
19	enc	enc10	old08	5	nan	0	1	120.068	123.068	2.5
20	enc	enc11	old31	9	nan	0	1	125.568	128.567	2
21	enc	enc12	old32	5	nan	0	1	130.567	133.567	4.5
22	enc	enc13	old66	8	nan	0	1	138.067	141.066	4.5
23	enc	enc14	old75	8	nan	0	1	145.566	148.566	2.5
24	enc	enc15	old78	9	nan	0	1	151.066	154.065	1
25	enc	enc16	old77	8	nan	0	1	155.065	158.065	1.5
26	enc	enc17	old11	5	nan	0	1	159.565	162.565	4
27	ctl	ctl07	nan	5	nan	0	1	166.564	169.564	3
28	ctl	ctl08	nan	8	nan	0	1	172.564	175.564	1
29	enc	enc18	old36	8	nan	0	1	176.564	179.563	1
30	enc	enc19	old22	8	nan	0	1	180.563	183.563	0.5
31	enc	enc20	old17	5	nan	0	1	184.063	187.063	3.5
32	enc	enc21	old72	9	nan	0	1	190.563	193.562	4.5
33	enc	enc22	old18	9	nan	0	1	198.062	201.062	9.5
34	ctl	ctl09	nan	8	nan	0	1	210.561	213.561	3.5
35	enc	enc23	old03	6	nan	0	1	217.061	220.06	4
36	ctl	ctl10	nan	9	nan	0	1	224.06	227.06	4
37	enc	enc24	old15	8	nan	0	1	231.059	234.059	1
38	enc	enc25	old49	8	nan	0	1	235.059	238.059	6
39	enc	enc26	old23	9	nan	0	1	244.058	247.058	6.5
40	enc	enc27	old52	5	nan	0	1	253.558	256.557	2
41	enc	enc28	old35	6	nan	0	1	258.557	261.557	1.5
42	enc	enc29	old46	9	nan	0	1	263.057	266.057	2.5
43	enc	enc30	old51	8	nan	0	1	268.557	271.556	4.5
44	enc	enc31	old38	6	nan	0	1	276.056	279.056	0.5
45	enc	enc32	old05	6	nan	0	1	279.556	282.555	1
46	ctl	ctl11	nan	6	nan	0	1	283.555	286.555	1.5
47	enc	enc33	old07	9	nan	0	1	288.055	291.055	2
48	enc	enc34	old57	8	nan	0	1	293.055	296.054	4
49	ctl	ctl12	nan	6	nan	0	1	300.054	303.054	2
50	enc	enc35	old02	9	nan	0	1	305.054	308.053	2.5
51	enc	enc36	old55	8	nan	0	1	310.553	313.553	2
52	enc	enc37	old20	9	nan	0	1	315.553	318.553	14.5
53	enc	enc38	old67	6	nan	0	1	333.051	336.051	4
54	enc	enc39	old21	5	nan	0	1	340.051	343.051	1.5
55	ctl	ctl13	nan	5	nan	0	1	344.551	347.55	1
56	enc	enc40	old16	6	nan	0	1	348.55	351.55	3
57	ctl	ctl14	nan	9	nan	0	1	354.55	357.55	5.5
58	ctl	ctl15	nan	8	nan	0	1	363.049	366.049	2
59	ctl	ctl16	nan	9	nan	0	1	368.049	371.048	2.5
60	enc	enc41	old41	6	nan	0	1	373.548	376.548	3
61	enc	enc42	old39	8	nan	0	1	379.548	382.548	3
62	enc	enc43	old37	9	nan	0	1	385.547	388.547	2
63	enc	enc44	old68	5	nan	0	1	390.547	393.547	5
64	enc	enc45	old60	6	nan	0	1	398.546	401.546	4.5
65	enc	enc46	old62	9	nan	0	1	406.046	409.046	10.5
66	ctl	ctl17	nan	8	nan	0	1	419.545	422.544	2.5
67	enc	enc47	old74	6	nan	0	1	425.044	428.044	2.5
68	enc	enc48	old34	9	nan	0	1	430.544	433.544	6
69	ctl	ctl18	nan	5	nan	0	1	439.543	442.543	3.5
70	ctl	ctl19	nan	5	nan	0	1	446.043	449.042	1.5
71	enc	enc49	old19	6	nan	0	1	450.542	453.542	2.5
72	ctl	ctl20	nan	8	nan	0	1	456.042	459.042	4
73	ctl	ctl21	nan	9	nan	0	1	463.041	466.041	2
74	enc	enc50	old12	8	nan	0	1	468.041	471.041	3
75	enc	enc51	old59	9	nan	0	1	474.04	477.04	3
76	ctl	ctl22	nan	8	nan	0	1	480.04	483.04	4
77	enc	enc52	old42	8	nan	0	1	487.039	490.039	0.5
78	enc	enc53	old24	9	nan	0	1	490.539	493.539	8
79	ctl	ctl23	nan	9	nan	0	1	501.538	504.538	3
80	ctl	ctl24	nan	6	nan	0	1	507.538	510.538	0.5
81	enc	enc54	old48	5	nan	0	1	511.038	514.037	1.5
82	enc	enc55	old30	8	nan	0	1	515.537	518.537	4
83	enc	enc56	old33	5	nan	0	1	522.537	525.536	5
84	ctl	ctl25	nan	6	nan	0	1	530.536	533.536	7.5
85	enc	enc57	old70	6	nan	0	1	541.035	544.035	1
86	ctl	ctl26	nan	6	nan	0	1	545.035	548.035	1.5
87	ctl	ctl27	nan	9	nan	0	1	549.535	552.534	0.5
88	enc	enc58	old14	5	nan	0	1	553.034	556.034	1.5
89	enc	enc59	old69	6	nan	0	1	557.534	560.534	2
90	enc	enc60	old44	8	nan	0	1	562.534	565.533	1
91	ctl	ctl28	nan	5	nan	0	1	566.533	569.533	5
92	ctl	ctl29	nan	8	nan	0	1	574.533	577.532	2
93	ctl	ctl30	nan	9	nan	0	1	579.532	582.532	5.5
94	ctl	ctl31	nan	6	nan	0	1	588.032	591.031	0.5
95	enc	enc61	old27	5	nan	0	1	591.531	594.531	8
96	ctl	ctl32	nan	5	nan	0	1	602.53	605.53	1
97	enc	enc62	old63	5	nan	0	1	606.53	609.53	0.5
98	ctl	ctl33	nan	5	nan	0	1	610.03	613.03	3.5
99	enc	enc63	old01	5	nan	0	1	616.529	619.529	1.5
100	enc	enc64	old06	9	nan	0	1	621.029	624.029	2.5
101	enc	enc65	old65	9	nan	0	1	626.528	629.528	9.5
102	enc	enc66	old73	5	nan	0	1	639.028	642.027	0.5
103	enc	enc67	old53	8	nan	0	1	642.527	645.527	1
104	ctl	ctl34	nan	8	nan	0	1	646.527	649.527	3
105	enc	enc68	old29	6	nan	0	1	652.526	655.526	1
106	enc	enc69	old13	6	nan	0	1	656.526	659.526	2
107	ctl	ctl35	nan	8	nan	0	1	661.526	664.525	0.5
108	ctl	ctl36	nan	6	nan	0	1	665.025	668.025	2
109	enc	enc70	old58	5	nan	0	1	670.025	673.025	8.5
110	ctl	ctl37	nan	5	nan	0	1	681.524	684.524	1.5
111	enc	enc71	old40	6	nan	0	1	686.024	689.024	1
112	enc	enc72	old04	8	nan	0	1	690.024	693.023	1
113	enc	enc73	old45	9	nan	0	1	694.023	697.023	4
114	enc	enc74	old26	8	nan	0	1	701.023	704.022	9.5
115	enc	enc75	old76	9	nan	0	1	713.522	716.521	4.5
116	ctl	ctl38	nan	8	nan	0	1	721.021	724.021	0.5
117	ctl	ctl39	nan	9	nan	0	1	724.521	727.521	4
118	enc	enc76	old54	6	nan	0	1	731.52	734.52	1
119	enc	enc77	old28	5	nan	0	1	735.52	738.52	11.5
120	enc	enc78	old25	6	nan	0	1			
