,trialnumber,category,trialcode,oldnumber,correctsource,stim_resp,stim_rt,stim_acc,onset,fix_onset,fix_duration
0,1,ctl,ctl0,,9,1,1619,0,0.021,3.03,2
1,2,enc,enc00,,5,1,893,0,5.019,8.028,3
2,3,enc,enc000,,9,1,827,0,11.02,14.029,2
3,4,ctl,ctl01,,6,1,829,0,16.018,19.027,1
4,5,enc,enc01,old64,8,1,810,0,20.013,23.022,8
5,6,enc,enc02,old07,5,1,722,0,31.013,34.022,7.5
6,7,enc,enc03,old55,5,1,703,0,41.511,44.52,0.5
7,8,enc,enc04,old42,6,1,961,0,45.021,48.03,6
8,9,enc,enc05,old40,5,1,719,0,54.031,57.04,2
9,10,enc,enc06,old75,9,1,839,0,59.03,62.038,2
10,11,ctl,ctl02,,5,1,673,0,64.028,67.037,4
11,12,ctl,ctl03,,6,1,621,0,71.032,74.041,2.5
12,13,ctl,ctl04,,6,1,641,0,76.532,79.541,1.5
13,14,ctl,ctl05,,9,1,625,0,81.028,84.037,5
14,15,enc,enc07,old59,6,1,857,0,89.035,92.044,1
15,16,enc,enc08,old13,8,1,709,0,93.031,96.04,3
16,17,ctl,ctl06,,9,1,820,0,99.032,102.041,3
17,18,enc,enc09,old46,9,1,771,0,105.033,108.042,2.5
18,19,enc,enc10,old10,5,1,711,0,110.533,113.542,6.5
19,20,enc,enc11,old36,9,1,647,0,120.044,123.053,2.5
20,21,enc,enc12,old39,5,1,555,0,125.544,128.553,2
21,22,enc,enc13,old66,8,1,725,0,130.542,133.551,4.5
22,23,enc,enc14,old71,8,1,931,0,138.048,141.057,4.5
23,24,enc,enc15,old78,9,1,1104,0,145.554,148.563,2.5
24,25,enc,enc16,old70,8,1,837,0,151.053,154.062,1
25,26,enc,enc17,old08,5,1,873,0,155.049,158.058,1.5
26,27,ctl,ctl07,,5,1,1033,0,159.545,162.554,4
27,28,ctl,ctl08,,8,1,749,0,166.549,169.558,3
28,29,enc,enc18,old32,8,1,1002,0,172.551,175.56,1
29,30,enc,enc19,old14,8,1,718,0,176.563,179.572,1
30,31,enc,enc20,old21,5,1,666,0,180.575,183.584,0.5
31,32,enc,enc21,old74,9,1,788,0,184.085,187.094,3.5
32,33,enc,enc22,old23,9,1,829,0,190.588,193.597,4.5
33,34,ctl,ctl09,,8,1,667,0,198.093,201.102,9.5
34,35,enc,enc23,old03,6,1,1107,0,210.597,213.606,3.5
35,36,ctl,ctl10,,9,1,972,0,217.1,220.109,4
36,37,enc,enc24,old24,8,1,1095,0,224.104,227.113,4
37,38,enc,enc25,old45,8,1,875,0,231.108,234.117,1
38,39,enc,enc26,old18,9,1,1031,0,235.104,238.112,6
39,40,enc,enc27,old44,5,1,701,0,244.114,247.123,6.5
40,41,enc,enc28,old31,6,1,733,0,253.625,256.634,2
41,42,enc,enc29,old50,9,1,1014,0,258.624,261.632,1.5
42,43,enc,enc30,old49,8,1,950,0,263.12,266.129,2.5
43,44,enc,enc31,old27,6,1,666,0,268.62,271.629,4.5
44,45,enc,enc32,old05,6,1,751,0,276.126,279.135,0.5
45,46,ctl,ctl11,,6,1,817,0,279.636,282.645,1
46,47,enc,enc33,old02,9,1,677,0,283.648,286.657,1.5
47,48,enc,enc34,old61,8,1,716,0,288.145,291.154,2
48,49,ctl,ctl12,,6,1,574,0,293.143,296.152,4
49,50,enc,enc35,old11,9,1,658,0,300.147,303.156,2
50,51,enc,enc36,old56,8,1,675,0,305.145,308.154,2.5
51,52,enc,enc37,old16,9,1,727,0,310.645,313.654,2
52,53,enc,enc38,old72,6,1,673,0,315.643,318.652,14.5
53,54,enc,enc39,old22,5,1,594,0,333.145,336.154,4
54,55,ctl,ctl13,,5,1,830,0,340.149,343.158,1.5
55,56,enc,enc40,old19,6,1,685,0,344.646,347.655,1
56,57,ctl,ctl14,,9,1,618,0,348.641,351.65,3
57,58,ctl,ctl15,,8,1,759,0,354.643,357.652,5.5
58,59,ctl,ctl16,,9,1,707,0,363.151,366.16,2
59,60,enc,enc41,old43,6,1,693,0,368.149,371.158,2.5
60,61,enc,enc42,old38,8,1,641,0,373.649,376.658,3
61,62,enc,enc43,old37,9,1,712,0,379.65,382.659,3
62,63,enc,enc44,old73,5,1,725,0,385.652,388.661,2
63,64,enc,enc45,old53,6,1,639,0,390.65,393.659,5
64,65,enc,enc46,old63,9,1,904,0,398.657,401.666,4.5
65,66,ctl,ctl17,,8,1,606,0,406.163,409.172,10.5
66,67,enc,enc47,old68,6,1,587,0,419.669,422.678,2.5
67,68,enc,enc48,old30,9,1,711,0,425.169,428.178,2.5
68,69,ctl,ctl18,,5,1,483,0,430.669,433.678,6
69,70,ctl,ctl19,,5,1,656,0,439.679,442.688,3.5
70,71,enc,enc49,old20,6,1,713,0,446.182,449.191,1.5
71,72,ctl,ctl20,,8,1,633,0,450.678,453.687,2.5
72,73,ctl,ctl21,,9,1,621,0,456.178,459.187,4
73,74,enc,enc50,old09,8,1,704,0,463.182,466.191,2
74,75,enc,enc51,old58,9,1,650,0,468.18,471.189,3
75,76,ctl,ctl22,,8,1,576,0,474.182,477.191,3
76,77,enc,enc52,old41,8,1,919,0,480.183,483.192,4
77,78,enc,enc53,old17,9,1,627,0,487.187,490.196,0.5
78,79,ctl,ctl23,,9,1,1356,0,490.697,493.706,8
79,80,ctl,ctl24,,6,1,740,0,501.697,504.706,3
80,81,enc,enc54,old52,5,1,499,0,507.698,510.707,0.5
81,82,enc,enc55,old35,8,1,612,0,511.209,514.217,1.5
82,83,enc,enc56,old29,5,1,500,0,515.705,518.714,4
83,84,ctl,ctl25,,6,1,583,0,522.709,525.718,5
84,85,enc,enc57,old67,6,1,879,0,530.717,533.726,7.5
85,86,ctl,ctl26,,6,1,813,0,541.215,544.223,1
86,87,ctl,ctl27,,9,1,577,0,545.226,548.235,1.5
87,88,enc,enc58,old25,5,1,640,0,549.723,552.732,0.5
88,89,enc,enc59,old69,6,1,833,0,553.234,556.243,1.5
89,90,enc,enc60,old51,8,1,537,0,557.73,560.739,2
90,91,ctl,ctl28,,5,1,666,0,562.729,565.737,1
91,92,ctl,ctl29,,8,1,663,0,566.74,569.749,5
92,93,ctl,ctl30,,9,1,630,0,574.748,577.757,2
93,94,ctl,ctl31,,6,1,616,0,579.746,582.755,5.5
94,95,enc,enc61,old28,5,1,548,0,588.254,591.263,0.5
95,96,ctl,ctl32,,5,1,621,0,591.765,594.774,8
96,97,enc,enc62,old60,5,1,453,0,602.764,605.773,1
97,98,ctl,ctl33,,5,1,513,0,606.76,609.769,0.5
98,99,enc,enc63,old04,5,1,363,0,610.27,613.279,3.5
99,100,enc,enc64,old01,9,1,916,0,616.773,619.782,1.5
100,101,enc,enc65,old65,9,1,572,0,621.269,624.278,2.5
101,102,enc,enc66,old76,5,1,615,0,626.769,629.778,9.5
102,103,enc,enc67,old54,8,1,1415,0,639.273,642.282,0.5
103,104,ctl,ctl34,,8,1,545,0,642.783,645.792,1
104,105,enc,enc68,old34,6,1,533,0,646.779,649.788,3
105,106,enc,enc69,old06,6,1,347,0,652.78,655.789,1
106,107,ctl,ctl35,,8,1,503,0,656.792,659.801,2
107,108,ctl,ctl36,,6,1,409,0,661.79,664.799,0.5
108,109,enc,enc70,old62,5,1,531,0,665.3,668.309,2
109,110,ctl,ctl37,,5,1,668,0,670.299,673.308,8.5
110,111,enc,enc71,old48,6,1,590,0,681.8,684.809,1.5
111,112,enc,enc72,old12,8,1,486,0,686.296,689.305,1
112,113,enc,enc73,old47,9,1,499,0,690.291,693.3,1
113,114,enc,enc74,old26,8,1,559,0,694.287,697.296,4
114,115,enc,enc75,old77,9,1,843,0,701.291,704.3,9.5
115,116,ctl,ctl38,,8,1,514,0,713.795,716.804,4.5
116,117,ctl,ctl39,,9,1,585,0,721.3,724.309,0.5
117,118,enc,enc76,old57,6,1,666,0,724.811,727.82,4
118,119,enc,enc77,old33,5,1,1133,0,731.815,734.824,1
119,120,enc,enc78,old15,6,1,921,0,735.827,738.836,11.5
