	category	Stim	OldNumber	Recognition_ACC	Recognition_RESP	Recognition_RT	Spatial_RESP	Spatial_RT	Condition	CorrectSource	Stim_RT
0	New	animal_ostrich.bmp	New26	1	2	2.353	False	0	0	8	0.9570000000000001
1	OLD	sporting_snow shoes_old.bmp	Old64	1	1	2.513	8.0	787	1	6	1.18
2	OLD	animal_sheep.bmp	Old11	1	1	3.928	8.0	739	1	5	1.042
3	OLD	sporting_boxing_gloves.bmp	Old56	1	1	2.9960000000000004	6.0	947	1	6	1.0490000000000002
4	OLD	food_rawchicken.bmp	Old23	1	1	1.653	8.0	442	1	9	0.986
5	OLD	animal_dalmation_old.bmp	Old04	0	2	1.453	8.0	442	1	8	0.981
6	OLD	sporting_Badminton Racquet.bmp	Old54	1	1	1.489	9.0	629	1	9	0.83
7	New	musical_bagpipes.bmp	New35	1	2	1.4809999999999999	9.0	629	0	5	0.762
8	New	sporting_baseball bat_new.bmp	New08	1	2	2.2119999999999997	9.0	629	0	6	0.6990000000000001
9	New	musical_french horn_old.bmp	New12	1	2	1.5619999999999998	9.0	629	1	8	1.001
10	OLD	animal_lion_new.bmp	Old07	0	2	2.674	9.0	629	0	8	0.867
11	OLD	food_croissant01.bmp	Old19	1	1	1.23	8.0	492	1	6	0.799
12	New	musical_bongo drum.bmp	New23	1	2	1.581	8.0	492	1	5	0.826
13	New	kitchen_spatula_old.bmp	New37	1	2	0.995	8.0	492	0	8	0.621
14	OLD	musical_accordion_old.bmp	Old41	0	2	3.122	8.0	492	1	6	1.3130000000000002
15	OLD	animal_parrot.bmp	Old09	0	2	2.875	8.0	492	1	6	0.889
16	New	food_bagel01.bmp	New17	1	2	1.072	8.0	492	1	8	1.3530000000000002
17	OLD	food_chocolatemilk.bmp	Old17	1	1	3.378	9.0	435	1	5	0.946
18	OLD	kitchen_cookie cutter.bmp	Old30	1	1	1.393	9.0	593	1	9	0.9329999999999999
19	OLD	animal_chimpanzee.bmp	Old03	0	2	1.608	9.0	593	1	9	0.794
20	OLD	kitchen_big cooking pot.bmp	Old28	0	2	1.119	9.0	593	1	5	0.853
21	OLD	fruit_watermelon_old.bmp	Old71	1	1	2.168	6.0	337	1	5	2.072
22	OLD	musical_clarinet_new.bmp	Old44	1	1	1.712	8.0	491	0	5	0.899
23	New	fruit_rasberry.bmp	New10	1	2	1.2919999999999998	8.0	491	1	5	0.745
24	New	musical_uculele_new.bmp	New39	0	1	2.838	8.0	348	1	8	0.865
25	OLD	fruit_pineapple_old.bmp	Old70	1	1	1.459	6.0	352	0	5	0.7340000000000001
26	OLD	sporting_skipping rope.bmp	Old63	0	2	1.848	6.0	352	1	6	0.861
27	OLD	Kitchen_apron.bmp	Old27	1	1	1.413	9.0	580	1	5	0.997
28	New	sporting_windsurf.bmp	New31	1	2	1.723	9.0	580	1	6	0.8320000000000001
29	OLD	animal_frog.bmp	Old06	1	1	1.732	8.0	638	1	5	0.8740000000000001
30	OLD	kitchen_ladle.bmp	Old31	1	1	1.2890000000000001	6.0	429	1	8	0.607
31	New	vegie_pumpkin.bmp	New21	0	1	2.41	6.0	448	1	5	0.985
32	OLD	animal_monarch_old.bmp	Old08	1	1	3.013	8.0	468	1	9	1.09
33	OLD	sporting_americanfootball.bmp	Old53	0	2	1.6880000000000002	8.0	468	0	6	0.737
34	OLD	hard_musical_recorder.bmp	Old40	1	1	2.7239999999999998	9.0	1654	0	9	0.6709999999999999
35	OLD	kitchen_coffee pot.bmp	Old29	0	2	1.403	9.0	1654	0	8	0.555
36	OLD	vegie_garlic01a.bmp	Old74	0	2	1.104	9.0	1654	0	5	0.621
37	OLD	food_bottleofredwine01.bmp	Old15	1	1	1.8559999999999999	5.0	1973	1	8	0.995
38	New	vegie_broccoli.bmp	New36	1	2	1.3159999999999998	5.0	1973	0	9	0.54
39	New	food_pizza.bmp	New22	1	2	0.789	5.0	1973	1	9	1.021
40	New	kitchen_ramekin.bmp	New13	1	2	0.963	5.0	1973	0	6	2.1830000000000003
41	OLD	kitchen_tea cup and saucer.bmp	Old37	1	1	2.315	5.0	701	1	8	1.032
42	New	kitchen_garlic press.bmp	New07	1	2	1.287	5.0	701	1	6	0.866
43	OLD	animal_siamese cat.bmp	Old12	0	2	1.4880000000000002	5.0	701	1	9	0.67
44	New	food_walnut01c.bmp	New34	1	2	3.4330000000000003	5.0	701	1	6	0.569
45	OLD	vegie_carrot.bmp	Old78	1	1	1.166	9.0	470	1	9	1.122
46	OLD	fruit_lemon_new.bmp	Old69	1	1	2.8	8.0	560	1	6	1.153
47	OLD	vegie_mushroom.bmp	Old76	0	2	3.752	8.0	560	0	6	0.75
48	OLD	vegie_corn02.bmp	Old73	1	1	1.025	6.0	342	1	5	1.2790000000000001
49	OLD	sporting_bicycle_old.bmp	Old55	1	1	1.27	8.0	586	1	9	0.8240000000000001
50	New	vegie_snowpea01.bmp	New27	1	2	1.263	8.0	586	1	8	0.9620000000000001
51	OLD	sporting_soccer ball_new.bmp	Old65	0	2	0.867	8.0	586	1	6	0.784
52	OLD	food_shellpasta.bmp	Old25	1	1	1.5430000000000001	5.0	288	0	6	0.672
53	OLD	sporting_karate clothing.bmp	Old60	0	2	1.042	5.0	288	0	9	0.608
54	OLD	vegie_green capsicum.bmp	Old75	0	2	0.9670000000000001	5.0	288	1	6	1.23
55	OLD	fruit_blackberry_new.bmp	Old66	1	1	3.591	5.0	263	1	5	1.099
56	OLD	musical_triangle.bmp	Old49	1	1	3.435	5.0	321	1	6	0.932
57	OLD	animal_penguin.bmp	Old10	0	2	1.506	5.0	321	0	8	0.9670000000000001
58	OLD	sporting_footballhelmet.bmp	Old57	0	2	1.484	5.0	321	1	9	1.102
59	New	sporting_basketball_new.bmp	New14	1	2	1.463	5.0	321	1	8	0.7659999999999999
60	OLD	kitchen_white strainer.bmp	Old38	1	1	1.5230000000000001	6.0	301	1	9	1.063
61	New	animal_pigeon.bmp	New32	1	2	1.335	6.0	301	0	9	0.7609999999999999
62	OLD	animal_cheetah.bmp	Old02	1	1	2.8560000000000003	8.0	445	1	8	0.9109999999999999
63	New	food_bread.bmp	New28	1	2	2.21	8.0	445	1	9	0.797
64	OLD	kitchen_peppermill.bmp	Old33	0	2	1.736	8.0	445	0	8	0.542
65	New	animal_giraffe.bmp	New03	0	1	1.5930000000000002	9.0	464	0	5	0.499
66	New	kitchen_toaster_old.bmp	New30	1	2	0.9309999999999999	9.0	464	0	5	0.433
67	OLD	food_baguette01.bmp	Old14	1	1	1.172	5.0	564	0	8	0.531
68	New	animal_dolphin_old.bmp	New09	1	2	0.852	5.0	564	0	9	0.6920000000000001
69	OLD	animal_zebra_old.bmp	Old13	0	2	4.208	5.0	564	0	8	0.532
70	OLD	kitchen_scrubbing brush.bmp	Old36	0	2	1.087	5.0	564	1	6	0.8
71	OLD	sporting_hockey stick_old.bmp	Old58	1	1	1.202	6.0	361	1	6	0.917
72	New	food_cookie01.bmp	New11	1	2	1.3119999999999998	6.0	361	1	8	1.0190000000000001
73	OLD	kitchen_wooden spoon_old.bmp	Old39	1	1	2.945	6.0	1147	1	9	0.9890000000000001
74	OLD	fruit_green grapes.bmp	Old68	0	2	1.58	6.0	1147	1	6	0.87
75	OLD	musical_piano_old.bmp	Old48	1	1	2.314	6.0	309	0	9	1.2329999999999999
76	OLD	kitchen_pitcher.bmp	Old34	0	2	0.853	6.0	309	0	5	0.551
77	New	vegie_cucumber.bmp	New33	1	2	0.96	6.0	309	1	5	0.48100000000000004
78	New	food_drink.bmp	New05	1	2	0.84	6.0	309	1	9	0.888
79	New	fruit_cherry.bmp	Old67	0	2	1.3519999999999999	6.0	309	1	8	0.8640000000000001
80	New	sporting_flippers.bmp	New02	1	2	2.6719999999999997	6.0	309	1	8	0.846
81	OLD	musical_drums_old.bmp	Old46	0	2	1.4509999999999998	6.0	309	0	6	0.879
82	OLD	musical_harp_new.bmp	Old43	1	1	4.095	5.0	307	1	6	1.052
83	New	fruit_apricot_new.bmp	New04	1	2	1.453	5.0	307	0	6	0.6779999999999999
84	OLD	food_candy.bmp	Old16	1	1	1.2309999999999999	8.0	477	1	9	0.9390000000000001
85	OLD	sporting_mini-trampoline.bmp	Old61	0	2	1.743	8.0	477	1	9	0.846
86	OLD	musical_xylophone_old.bmp	Old52	0	2	1.08	8.0	477	1	5	2.4
87	New	kitchen_kettle_new.bmp	New24	1	2	3.7689999999999997	8.0	477	0	9	0.943
88	OLD	food_softcheese.bmp	Old24	1	1	1.7209999999999999	9.0	419	1	8	1.129
89	New	musical_zamponia windflute.bmp	New29	1	2	1.391	9.0	419	0	8	0.9640000000000001
90	OLD	food_pickle01a.bmp	Old22	0	2	1.357	9.0	419	1	8	0.99
91	OLD	kitchen_martini glass.bmp	Old32	1	1	2.428	5.0	538	0	8	0.73
92	OLD	animal_camel_new.bmp	Old01	0	2	0.9620000000000001	5.0	538	1	5	0.858
93	New	animal_gorilla.bmp	New15	1	2	1.089	5.0	538	0	5	0.718
94	OLD	sporting_rollerblade.bmp	Old62	1	1	2.267	6.0	360	1	8	0.784
95	OLD	vegie_radish.bmp	Old77	0	2	1.608	6.0	360	1	9	1.29
96	New	kitchen_fork_old.bmp	New18	1	2	0.862	6.0	360	0	9	0.8420000000000001
97	OLD	musical_tuba.bmp	Old50	0	2	1.25	6.0	360	0	9	0.631
98	OLD	food_pecan02.bmp	Old21	1	1	1.854	8.0	338	1	8	1.4609999999999999
99	OLD	food_toast.bmp	Old26	0	2	0.9790000000000001	8.0	338	1	8	1.02
100	New	animal_seal.bmp	New38	1	2	0.755	8.0	338	0	6	0.782
101	OLD	musical_double bass.bmp	Old45	1	1	1.7309999999999999	5.0	277	1	5	0.943
102	OLD	food_cracker02.bmp	Old18	1	1	1.432	6.0	310	1	9	0.802
103	OLD	sporting_fishing rod.bmp	Old59	1	1	1.7830000000000001	5.0	439	1	5	1.0959999999999999
104	New	animal_horse.bmp	New20	1	2	1.075	5.0	439	1	9	1.51
105	OLD	kitchen_plate.bmp	Old35	0	2	1.198	5.0	439	1	8	1.08
106	New	kitchen_baking spatula.bmp	New01	1	2	0.868	5.0	439	0	6	0.841
107	OLD	musical_acoustic guitar_new.bmp	Old42	1	1	3.128	9.0	450	1	6	0.7290000000000001
108	OLD	food_frenchfries.bmp	Old20	1	1	1.071	6.0	283	1	9	0.983
109	New	musical_tambourine_new.bmp	New06	1	2	1.053	6.0	283	0	5	0.8240000000000001
110	New	fruit_granny smith apple.bmp	New16	1	2	0.8809999999999999	6.0	283	0	6	0.604
111	New	sporting_weighlifting.bmp	New25	1	2	0.748	6.0	283	1	5	0.961
112	OLD	vegie_cauliflower.bmp	Old72	1	1	0.988	8.0	610	1	6	0.976
113	OLD	musical_harmonica_new.bmp	Old47	1	1	2.582	9.0	431	0	9	0.785
114	OLD	animal_farm pig.bmp	Old05	0	2	0.9790000000000001	9.0	431	1	5	0.6970000000000001
115	New	sporting_golf ball.bmp	New19	1	2	8.587	9.0	431	1	5	0.862
116	OLD	musical_violin_old.bmp	Old51	1	1	3.772	8.0	308	1	8	0.725
