trial_type	trialcode	oldnumber	correctsource	stim_resp	stim_rt	stim_acc	onset	fix_onset	fix_duration	duration
enc	enc00		5	1.0	1348	0	10.016	13.025	4.5	11.516
enc	enc000		9	1.0	1904	0	17.522000000000002	20.531	4.5	19.022000000000002
ctl	ctl0		9	1.0	1389	0	25.026999999999997	28.035999999999998	0.5	22.526999999999997
enc	enc01	old55	8	1.0	1932	0	28.538	31.546999999999997	0.5	26.038
ctl	ctl01		6	1.0	1045	0	32.048	35.056999999999995	4.5	33.548
enc	enc02	old05	5	1.0	1903	0	39.554	42.563	2.0	38.554
enc	enc03	old62	5	1.0	2252	0	44.552	47.56100000000001	3.5	45.052
ctl	ctl02		5	1.0	1798	0	51.055	54.06399999999999	1.5	49.555
ctl	ctl03		6	1.0	1343	0	55.551	58.56	2.5	55.051
enc	enc04	old68	6	1.0	2303	0	61.051	64.06	1.0	59.051
enc	enc05	old69	5	1.0	2915	0	65.063	68.072	3.0	65.063
ctl	ctl04		6	1.0	1415	0	71.064	74.07300000000001	4.0	72.064
enc	enc06	old45	9	1.0	1885	0	78.068	81.077	0.5	75.568
ctl	ctl05		9	1.0	1465	0	81.579	84.588	2.5	81.079
enc	enc07	old63	6	1.0	2722	0	87.07799999999999	90.087	2.5	86.57799999999999
ctl	ctl06		9	1.0	2247	0	92.57799999999999	95.587	3.5	93.07799999999999
ctl	ctl07		5	1.0	1402	0	99.081	102.09	1.0	97.081
enc	enc08	old07	8	1.0	2299	0	103.09299999999999	106.102	2.0	102.09299999999999
enc	enc09	old76	9	1.0	2311	0	108.09100000000001	111.1	0.5	105.59100000000001
enc	enc10	old08	5	1.0	2657	0	111.601	114.61	4.5	113.101
enc	enc11	old38	9	1.0	2475	0	119.10700000000001	122.116	7.0	123.10700000000001
enc	enc12	old28	5		0	1	129.10299999999998	132.112	0.5	126.60299999999998
enc	enc13	old47	8	1.0	1780	0	132.614	135.623	2.0	131.614
enc	enc14	old43	8	1.0	1693	0	137.612	140.621	1.0	135.612
enc	enc15	old41	9	1.0	1991	0	141.624	144.63299999999998	1.0	139.624
enc	enc16	old40	8	1.0	2986	0	145.636	148.645	3.5	146.136
enc	enc17	old02	5	1.0	1774	0	152.139	155.148	1.0	150.139
ctl	ctl08		8	1.0	1439	0	156.15	159.159	2.0	155.15
enc	enc18	old32	8	1.0	1916	0	161.149	164.158	0.5	158.649
enc	enc19	old19	8		0	1	164.65900000000002	167.668	3.5	165.15900000000002
enc	enc20	old26	5	1.0	1375	0	171.162	174.171	7.0	175.162
ctl	ctl09		8	1.0	767	0	181.158	184.167	2.5	180.658
enc	enc21	old42	9	1.0	1635	0	186.658	189.667	5.0	188.658
enc	enc22	old24	9	1.0	1751	0	194.665	197.674	1.0	192.665
enc	enc23	old13	6	1.0	1767	0	198.67700000000002	201.68599999999998	10.0	205.67700000000002
enc	enc24	old23	8	1.0	2867	0	211.68200000000002	214.69099999999997	1.5	210.18200000000002
enc	enc25	old74	8	1.0	2086	0	216.179	219.188	0.5	213.679
enc	enc26	old22	9	1.0	1852	0	219.68900000000002	222.69799999999998	2.5	219.18900000000002
enc	enc27	old71	5	1.0	1510	0	225.18900000000002	228.19799999999998	3.5	225.68900000000002
enc	enc28	old37	6	1.0	2226	0	231.692	234.701	1.0	229.692
ctl	ctl10		9	1.0	1443	0	235.704	238.713	0.5	233.204
ctl	ctl11		6	1.0	1279	0	239.21400000000003	242.22299999999998	1.5	237.71400000000003
ctl	ctl12		6	1.0	1473	0	243.71099999999998	246.72	7.0	247.71099999999998
ctl	ctl13		5	1.0	1031	0	253.707	256.716	7.0	257.707
enc	enc29	old78	9	1.0	1731	0	263.704	266.71299999999997	2.0	262.704
enc	enc30	old77	8	1.0	2358	0	268.702	271.711	6.5	272.202
ctl	ctl14		9	1.0	1271	0	278.21299999999997	281.222	3.5	278.71299999999997
enc	enc31	old35	6	1.0	2176	0	284.716	287.725	2.5	284.216
enc	enc32	old06	6	1.0	2793	0	290.216	293.225	4.0	291.216
enc	enc33	old01	9	1.0	1828	0	297.22	300.22900000000004	3.5	297.72
enc	enc34	old60	8	1.0	2864	0	303.723	306.732	1.0	301.723
ctl	ctl15		8	1.0	881	0	307.735	310.743	6.5	311.235
enc	enc35	old10	9	1.0	1845	0	317.246	320.255	7.5	321.746
ctl	ctl16		9	1.0	1069	0	327.744	330.75300000000004	2.5	327.244
ctl	ctl17		8	1.0	1155	0	333.244	336.25300000000004	1.5	331.744
enc	enc36	old64	8	1.0	1503	0	337.74	340.749	1.0	335.74
enc	enc37	old18	9	1.0	2095	0	341.736	344.745	3.0	341.736
enc	enc38	old51	6	1.0	2042	0	347.73699999999997	350.746	2.5	347.23699999999997
ctl	ctl18		5	1.0	1113	0	353.236	356.245	1.0	351.236
enc	enc39	old21	5	1.0	2494	0	357.23199999999997	360.241	9.0	363.23199999999997
enc	enc40	old15	6	1.0	1330	0	369.23400000000004	372.24300000000005	1.5	367.73400000000004
enc	enc41	old67	6	1.0	1383	0	373.731	376.74	8.5	379.231
enc	enc42	old27	8	1.0	1582	0	385.23199999999997	388.241	8.0	390.23199999999997
enc	enc43	old34	9	1.0	2233	0	396.231	399.24	1.5	394.731
ctl	ctl19		5	1.0	1009	0	400.728	403.73699999999997	5.0	402.728
enc	enc44	old52	5	1.0	2056	0	408.735	411.744	1.0	406.735
ctl	ctl20		8	1.0	1209	0	412.74699999999996	415.756	3.0	412.74699999999996
ctl	ctl21		9	1.0	557	0	418.74800000000005	421.75699999999995	5.0	420.74800000000005
enc	enc45	old59	6	1.0	1899	0	426.755	429.764	0.5	424.255
ctl	ctl22		8	1.0	1276	0	430.265	433.274	1.5	428.765
enc	enc46	old53	9	1.0	2622	0	434.76199999999994	437.77099999999996	0.5	432.26199999999994
enc	enc47	old49	6	1.0	2677	0	438.273	441.282	2.0	437.273
enc	enc48	old36	9	1.0	2414	0	443.27099999999996	446.28	1.5	441.77099999999996
enc	enc49	old20	6	1.0	1639	0	447.76800000000003	450.776	1.0	445.76800000000003
enc	enc50	old03	8	1.0	1686	0	451.779	454.788	2.5	451.279
enc	enc51	old61	9	1.0	1955	0	457.279	460.288	5.5	459.779
enc	enc52	old75	8	1.0	2375	0	465.788	468.79699999999997	2.5	465.288
ctl	ctl23		9	1.0	1121	0	471.287	474.296	1.5	469.787
enc	enc53	old17	9	1.0	2118	0	475.784	478.793	0.5	473.284
ctl	ctl24		6	1.0	2085	0	479.295	482.30400000000003	3.0	479.295
enc	enc54	old66	5	1.0	2294	0	485.296	488.305	3.5	485.796
enc	enc55	old29	8	1.0	2125	0	491.798	494.80699999999996	7.5	496.298
enc	enc56	old39	5	1.0	2054	0	502.296	505.305	2.5	501.796
enc	enc57	old48	6	1.0	1820	0	507.796	510.805	0.5	505.296
ctl	ctl25		6	1.0	1120	0	511.306	514.315	1.0	509.30600000000004
enc	enc58	old14	5	1.0	2162	0	515.302	518.311	4.0	516.302
enc	enc59	old44	6	1.0	1781	0	522.306	525.315	11.5	530.806
enc	enc60	old70	8	1.0	2137	0	536.816	539.825	0.5	534.316
ctl	ctl26		6	1.0	1099	0	540.326	543.335	4.0	541.326
ctl	ctl27		9	1.0	1084	0	547.33	550.339	0.5	544.83
ctl	ctl28		5	1.0	1336	0	550.841	553.85	2.5	550.341
enc	enc61	old30	5	1.0	2105	0	556.34	559.349	3.0	556.34
enc	enc62	old65	5	1.0	1646	0	562.342	565.35	1.0	560.342
ctl	ctl29		8	1.0	1364	0	566.3530000000001	569.362	2.0	565.3530000000001
enc	enc63	old12	5	1.0	2336	0	571.352	574.361	0.5	568.852
enc	enc64	old04	9	1.0	1809	0	574.862	577.871	7.0	578.862
ctl	ctl30		9	1.0	1603	0	584.8580000000001	587.867	0.5	582.3580000000001
enc	enc65	old58	9	1.0	1703	0	588.369	591.378	0.5	585.869
enc	enc66	old46	5	1.0	1744	0	591.879	594.888	0.5	589.379
ctl	ctl31		6	1.0	1545	0	595.39	598.399	1.5	593.89
ctl	ctl32		5	1.0	634	0	599.886	602.895	3.0	599.886
enc	enc67	old54	8	1.0	1698	0	605.888	608.8969999999999	1.5	604.388
enc	enc68	old33	6	1.0	2952	0	610.384	613.393	4.5	611.884
ctl	ctl33		5	1.0	1416	0	617.89	620.899	0.5	615.39
ctl	ctl34		8	1.0	1101	0	621.4	624.409	8.0	626.4
enc	enc69	old09	6	1.0	2079	0	632.4	635.409	1.0	630.4
enc	enc70	old57	5	1.0	1863	0	636.4119999999999	639.4209999999999	4.5	637.9119999999999
ctl	ctl35		8	1.0	1395	0	643.9169999999999	646.9259999999999	2.0	642.9169999999999
ctl	ctl36		6	1.0	705	0	648.9159999999999	651.925	1.0	646.9159999999999
enc	enc71	old73	6	1.0	1514	0	652.928	655.936	2.0	651.928
enc	enc72	old11	8	1.0	2230	0	657.926	660.935	2.0	656.926
ctl	ctl37		5	1.0	1240	0	662.924	665.933	10.0	669.924
ctl	ctl38		8	1.0	1098	0	675.929	678.938	3.5	676.429
enc	enc73	old72	9	1.0	2092	0	682.432	685.441	9.0	688.432
enc	enc74	old16	8	1.0	2149	0	694.434	697.443	0.5	691.934
ctl	ctl39		9	1.0	1098	0	697.945	700.954	7.0	701.945
enc	enc75	old50	9	1.0	1643	0	707.941	710.95	12.5	717.441
enc	enc76	old56	6		0	1	723.437	726.446	2.5	722.937
enc	enc77	old31	5	1.0	2382	0	728.937	731.946	18.5	744.437
enc	enc78	old25	6	1.0	1986	0				
