trial_type	trialcode	oldnumber	correctsource	stim_resp	stim_rt	stim_acc	onset	fix_onset	fix_duration	duration
ctl	ctl0		5	1.0	1703	0	4.577	7.586	0.5	2.077
enc	enc00		8	1.0	1991	0	8.088	11.097000000000001	0.5	5.587999999999999
enc	enc000		9	1.0	1800	0	11.597999999999999	14.607000000000001	5.5	14.097999999999999
ctl	ctl01		8	1.0	1362	0	20.107	23.116	0.5	17.607
enc	enc01	old58	6	1.0	1884	0	23.616999999999997	26.625999999999998	1.0	21.616999999999997
enc	enc02	old12	5	1.0	2014	0	27.612	30.621	1.0	25.612
enc	enc03	old20	6	1.0	2539	0	31.608	34.617	1.5	30.108000000000004
enc	enc04	old73	9	1.0	2815	0	36.104	39.113	2.0	35.104
enc	enc05	old57	8	1.0	2103	0	41.103	44.111999999999995	3.0	41.103
enc	enc06	old49	9		0	1	47.104	50.113	0.5	44.604
ctl	ctl02		5	1.0	878	0	50.614	53.623000000000005	4.0	51.614
ctl	ctl03		6	1.0	992	0	57.618	60.626999999999995	2.5	57.118
enc	enc07	old37	8	1.0	1908	0	63.118	66.127	1.5	61.617999999999995
ctl	ctl04		8	1.0	824	0	67.615	70.624	2.0	66.615
enc	enc08	old46	6	1.0	1982	0	72.613	75.622	3.5	73.113
enc	enc09	old19	5	1.0	2040	0	79.116	82.125	0.5	76.616
ctl	ctl05		8	1.0	913	0	82.626	85.635	2.5	82.126
enc	enc10	old30	6	1.0	2451	0	88.126	91.135	0.5	85.626
enc	enc11	old06	6	1.0	1543	0	91.63600000000001	94.645	1.0	89.63600000000001
enc	enc12	old21	8	1.0	2553	0	95.632	98.641	1.5	94.132
enc	enc13	old72	5	1.0	2572	0	100.12799999999999	103.137	2.5	99.62799999999999
enc	enc14	old15	9	1.0	1876	0	105.62799999999999	108.637	3.0	105.62799999999999
enc	enc15	old28	9	1.0	2480	0	111.62899999999999	114.63799999999999	1.0	109.62899999999999
enc	enc16	old36	5	1.0	1655	0	115.624	118.633	1.5	114.124
enc	enc17	old16	5	1.0	2212	0	120.12100000000001	123.13	1.5	118.62100000000001
ctl	ctl06		5	1.0	2290	0	124.618	127.62700000000001	1.0	122.618
enc	enc18	old11	5	1.0	1833	0	128.63	131.639	2.5	128.13
enc	enc19	old48	8	1.0	2125	0	134.129	137.138	2.5	133.629
ctl	ctl07		5		0	1	139.629	142.638	0.5	137.129
enc	enc20	old69	6	1.0	1278	0	143.14	146.149	5.5	145.64
enc	enc21	old53	5	1.0	2687	0	151.648	154.657	5.5	154.148
enc	enc22	old76	6	1.0	1714	0	160.157	163.166	2.0	159.157
enc	enc23	old09	5	1.0	1709	0	165.155	168.16400000000002	1.0	163.155
enc	enc24	old03	8	1.0	1783	0	169.15	172.15900000000002	3.0	169.15
enc	enc25	old50	5	1.0	2284	0	175.15200000000002	178.16	3.5	175.65200000000002
enc	enc26	old59	9	1.0	2561	0	181.65400000000002	184.66299999999998	0.5	179.15400000000002
ctl	ctl08		6	1.0	915	0	185.165	188.174	1.5	183.665
ctl	ctl09		9	1.0	900	0	189.66099999999997	192.67	9.5	196.16099999999997
ctl	ctl10		8	1.0	740	0	202.165	205.174	2.0	201.165
ctl	ctl11		5	1.0	683	0	207.16299999999998	210.172	2.0	206.16299999999998
enc	enc27	old44	8	1.0	2205	0	212.162	215.171	1.0	210.162
ctl	ctl12		9	1.0	1030	0	216.174	219.183	0.5	213.674
enc	enc28	old17	9	1.0	2218	0	219.68400000000003	222.69299999999998	0.5	217.18400000000003
ctl	ctl13		6	1.0	828	0	223.195	226.203	2.0	222.195
enc	enc29	old29	8	1.0	2829	0	228.19299999999998	231.202	4.5	229.69299999999998
enc	enc30	old60	6	1.0	2054	0	235.69799999999998	238.707	3.5	236.19799999999998
enc	enc31	old05	9	1.0	1413	0	242.201	245.21	8.0	247.201
enc	enc32	old77	6	1.0	1950	0	253.2	256.209	9.0	259.2
enc	enc33	old23	9	1.0	2879	0	265.203	268.212	0.5	262.703
enc	enc34	old18	6	1.0	2571	0	268.71299999999997	271.722	2.5	268.21299999999997
ctl	ctl14		6	1.0	997	0	274.21299999999997	277.222	8.5	279.71299999999997
enc	enc35	old75	5	1.0	2617	0	285.714	288.723	0.5	283.214
enc	enc36	old08	9	1.0	1547	0	289.224	292.233	5.5	291.724
enc	enc37	old01	8		0	1	297.733	300.742	3.0	297.733
enc	enc38	old47	6	1.0	1568	0	303.73400000000004	306.743	4.0	304.73400000000004
ctl	ctl15		6	1.0	1367	0	310.738	313.747	6.5	314.238
ctl	ctl16		9	1.0	698	0	320.25	323.259	0.5	317.75
enc	enc39	old65	6	1.0	1530	0	323.76	326.769	11.5	332.26
enc	enc40	old62	5		0	1	338.27	341.279	9.5	344.77
enc	enc41	old66	6	1.0	2053	0	350.774	353.783	1.0	348.774
ctl	ctl17		8	1.0	877	0	354.769	357.778	5.5	357.269
enc	enc42	old63	9	1.0	1842	0	363.278	366.287	1.5	361.778
enc	enc43	old14	8	1.0	2316	0	367.775	370.784	1.0	365.775
enc	enc44	old35	9	1.0	2011	0	371.787	374.796	2.0	370.787
ctl	ctl18		9	1.0	1239	0	376.785	379.79400000000004	3.5	377.285
enc	enc45	old26	8	1.0	2377	0	383.288	386.29699999999997	1.5	381.788
enc	enc46	old27	9	1.0	2146	0	387.784	390.793	0.5	385.284
ctl	ctl19		8	1.0	986	0	391.295	394.30400000000003	2.5	390.795
ctl	ctl20		5	1.0	818	0	396.79400000000004	399.80300000000005	0.5	394.29400000000004
ctl	ctl21		5	1.0	743	0	400.305	403.314	2.5	399.805
ctl	ctl22		8	1.0	784	0	405.805	408.814	2.0	404.805
ctl	ctl23		9	1.0	916	0	410.80300000000005	413.81199999999995	11.0	418.80300000000005
ctl	ctl24		8	1.0	998	0	424.811	427.82	1.0	422.811
enc	enc47	old34	6	1.0	2909	0	428.806	431.815	1.5	427.306
enc	enc48	old04	6	1.0	1810	0	433.30300000000005	436.31199999999995	0.5	430.80300000000005
enc	enc49	old45	8	1.0	2145	0	436.814	439.82300000000004	0.5	434.314
enc	enc50	old52	9	1.0	2538	0	440.324	443.333	2.0	439.324
enc	enc51	old07	6		0	1	445.32199999999995	448.33099999999996	1.0	443.32199999999995
ctl	ctl25		9	1.0	877	0	449.31699999999995	452.32599999999996	2.0	448.31699999999995
ctl	ctl26		5	1.0	818	0	454.316	457.325	4.0	455.316
enc	enc52	old43	5	1.0	1611	0	461.32	464.329	4.5	462.82
enc	enc53	old54	9	1.0	1783	0	468.82599999999996	471.834	8.5	474.32599999999996
enc	enc54	old40	8	1.0	2237	0	480.32599999999996	483.335	1.0	478.32599999999996
enc	enc55	old56	8	1.0	2480	0	484.32199999999995	487.33099999999996	6.0	487.32199999999995
ctl	ctl27		6	1.0	1988	0	493.332	496.341	1.5	491.832
enc	enc56	old31	6	1.0	2130	0	497.82800000000003	500.837	13.0	507.82800000000003
ctl	ctl28		6	1.0	1057	0	513.826	516.835	1.5	512.326
enc	enc57	old55	9	1.0	1747	0	518.323	521.332	1.5	516.823
enc	enc58	old74	9	1.0	1482	0	522.82	525.828	7.5	527.32
enc	enc59	old61	5	1.0	2113	0	533.317	536.326	1.5	531.817
ctl	ctl29		9	1.0	823	0	537.814	540.823	3.5	538.314
enc	enc60	old64	8	1.0	2182	0	544.317	547.326	1.0	542.317
ctl	ctl30		8	1.0	751	0	548.3290000000001	551.3380000000001	1.5	546.8290000000001
enc	enc61	old13	8	1.0	2091	0	552.826	555.8340000000001	3.5	553.326
ctl	ctl31		8	1.0	1857	0	559.328	562.337	4.5	560.828
enc	enc62	old39	5	1.0	2211	0	566.8340000000001	569.8430000000001	3.0	566.8340000000001
ctl	ctl32		5	1.0	1433	0	572.835	575.844	0.5	570.335
enc	enc63	old78	8	1.0	2120	0	576.345	579.354	8.0	581.345
enc	enc64	old71	9	1.0	1922	0	587.345	590.354	5.0	589.345
ctl	ctl33		9	1.0	785	0	595.352	598.361	0.5	592.852
ctl	ctl34		9	1.0	1154	0	598.863	601.871	1.0	596.863
enc	enc65	old67	8	1.0	2307	0	602.874	605.883	11.5	611.374
enc	enc66	old68	8	1.0	2064	0	617.384	620.393	2.5	616.884
ctl	ctl35		6	1.0	1329	0	622.884	625.893	2.0	621.884
enc	enc67	old10	5	1.0	2021	0	627.882	630.891	0.5	625.382
enc	enc68	old02	9		0	1	631.393	634.4019999999999	1.0	629.393
enc	enc69	old32	5	1.0	2415	0	635.405	638.414	1.0	633.405
enc	enc70	old51	9	1.0	2155	0	639.4169999999999	642.425	0.5	636.9169999999999
enc	enc71	old38	8	1.0	2711	0	642.927	645.936	7.5	647.427
ctl	ctl36		6	1.0	1505	0	653.425	656.434	15.0	665.425
enc	enc72	old24	6	1.0	1855	0	671.428	674.437	0.5	668.928
enc	enc73	old70	9	1.0	2355	0	674.939	677.948	1.0	672.939
ctl	ctl37		5	1.0	1044	0	678.951	681.96	0.5	676.451
ctl	ctl38		6	1.0	824	0	682.461	685.47	9.0	688.461
enc	enc74	old42	5	1.0	2850	0	694.4639999999999	697.4730000000001	6.0	697.4639999999999
enc	enc75	old41	6	1.0	1870	0	703.4739999999999	706.4830000000001	10.5	710.9739999999999
ctl	ctl39		9	1.0	1196	0	716.9810000000001	719.99	5.0	718.9810000000001
enc	enc76	old25	5	1.0	1704	0	724.988	727.997	1.0	722.988
enc	enc77	old33	5	1.0	1649	0	729.0	732.0089999999999	18.5	744.5
enc	enc78	old22	8	1.0	2925	0				
