trial_type	trialcode	oldnumber	correctsource	stim_resp	stim_rt	stim_acc	onset	fix_onset	fix_duration	duration
enc	enc00		5	1	1401	0	10.092	13.091	4.5	11.592
enc	enc000		9	1	1689	0	17.590999999999998	20.590999999999998	4.5	19.090999999999998
ctl	ctl0		9	1	1325	0	25.09	28.09	0.5	22.59
enc	enc01	old53	8	1	2063	0	28.59	31.59	0.5	26.09
ctl	ctl01		6	3	1412	0	32.09	35.09	4.5	33.59
enc	enc02	old09	5	3	412	0	39.589	42.589	2.0	38.589
enc	enc03	old65	5	3	411	0	44.589	47.589	3.5	45.089
ctl	ctl02		5	3	411	0	51.088	54.088	1.5	49.588
ctl	ctl03		6	1	979	0	55.588	58.588	2.5	55.088
enc	enc04	old72	6	1	1873	0	61.088	64.087	1.0	59.088
enc	enc05	old75	5	3	1412	0	65.087	68.087	3.0	65.087
ctl	ctl04		6	1	1007	0	71.087	74.087	4.0	72.087
enc	enc06	old48	9	3	1413	0	78.086	81.086	0.5	75.586
ctl	ctl05		9	1	725	0	81.586	84.586	2.5	81.086
enc	enc07	old54	6	3	914	0	87.086	90.085	2.5	86.586
ctl	ctl06		9	3	414	0	92.585	95.585	3.5	93.085
ctl	ctl07		5	1	862	0	99.085	102.084	1.0	97.085
enc	enc08	old04	8	3	915	0	103.084	106.084	2.0	102.084
enc	enc09	old78	9	1	1737	0	108.084	111.084	0.5	105.584
enc	enc10	old05	5	3	1916	0	111.584	114.583	4.5	113.084
enc	enc11	old33	9	3	915	0	119.083	122.083	7.0	123.083
enc	enc12	old34	5	3	915	0	129.082	132.082	0.5	126.582
enc	enc13	old45	8	3	916	0	132.582	135.582	2.0	131.582
enc	enc14	old49	8	3	2416	0	137.582	140.58100000000002	1.0	135.582
enc	enc15	old41	9	1	2260	0	141.58100000000002	144.58100000000002	1.0	139.58100000000002
enc	enc16	old43	8	3	917	0	145.58100000000002	148.58100000000002	3.5	146.08100000000002
enc	enc17	old10	5	3	1917	0	152.08	155.08	1.0	150.08
ctl	ctl08		8	3	418	0	156.08	159.08	2.0	155.08
enc	enc18	old35	8	3	1418	0	161.08	164.079	0.5	158.58
enc	enc19	old16	8	1	1049	0	164.579	167.579	3.5	165.079
enc	enc20	old22	5	4	418	0	171.079	174.079	7.0	175.079
ctl	ctl09		8	1	1224	0	181.078	184.078	2.5	180.578
enc	enc21	old52	9	4	1419	0	186.578	189.577	5.0	188.578
enc	enc22	old20	9	4	919	0	194.577	197.577	1.0	192.577
enc	enc23	old12	6	4	419	0	198.577	201.576	10.0	205.577
enc	enc24	old23	8	4	1419	0	211.576	214.575	1.5	210.076
enc	enc25	old68	8	1	768	0	216.075	219.075	0.5	213.575
enc	enc26	old18	9	4	1421	0	219.575	222.575	2.5	219.075
enc	enc27	old76	5	4	421	0	225.075	228.074	3.5	225.575
enc	enc28	old32	6	1	1557	0	231.574	234.574	1.0	229.574
ctl	ctl10		9	4	921	0	235.574	238.574	0.5	233.074
ctl	ctl11		6	1	808	0	239.074	242.07299999999998	1.5	237.574
ctl	ctl12		6	1	577	0	243.57299999999998	246.57299999999998	7.0	247.57299999999998
ctl	ctl13		5	1	606	0	253.572	256.572	7.0	257.572
enc	enc29	old77	9	4	1423	0	263.572	266.57099999999997	2.0	262.572
enc	enc30	old74	8	4	1423	0	268.57099999999997	271.57099999999997	6.5	272.07099999999997
ctl	ctl14		9	1	930	0	278.07	281.07	3.5	278.57
enc	enc31	old37	6	1	1476	0	284.57	287.57	2.5	284.07
enc	enc32	old08	6	4	424	0	290.07	293.069	4.0	291.07
enc	enc33	old06	9	1	1554	0	297.069	300.069	3.5	297.569
enc	enc34	old56	8	4	424	0	303.568	306.568	1.0	301.568
ctl	ctl15		8	1	853	0	307.568	310.568	6.5	311.068
enc	enc35	old07	9	1	1926	0	317.067	320.067	7.5	321.567
ctl	ctl16		9	4	426	0	327.567	330.566	2.5	327.067
ctl	ctl17		8	1	649	0	333.066	336.066	1.5	331.566
enc	enc36	old64	8	1	1492	0	337.566	340.566	1.0	335.566
enc	enc37	old24	9	1	1017	0	341.565	344.565	3.0	341.565
enc	enc38	old51	6	4	928	0	347.565	350.565	2.5	347.065
ctl	ctl18		5	1	850	0	353.065	356.064	1.0	351.065
enc	enc39	old19	5	1	1303	0	357.064	360.064	9.0	363.064
enc	enc40	old25	6	4	427	0	369.06300000000005	372.06300000000005	1.5	367.56300000000005
enc	enc41	old66	6	4	928	0	373.56300000000005	376.56300000000005	8.5	379.06300000000005
enc	enc42	old39	8	4	1428	0	385.06199999999995	388.06199999999995	8.0	390.06199999999995
enc	enc43	old38	9	1	1311	0	396.061	399.061	1.5	394.561
ctl	ctl19		5	1	742	0	400.561	403.561	5.0	402.561
enc	enc44	old50	5	4	1930	0	408.56	411.56	1.0	406.56
ctl	ctl20		8	1	889	0	412.56	415.56	3.0	412.56
ctl	ctl21		9	1	662	0	418.559	421.559	5.0	420.559
enc	enc45	old59	6	4	1432	0	426.559	429.55800000000005	0.5	424.059
ctl	ctl22		8	1	735	0	430.05800000000005	433.05800000000005	1.5	428.55800000000005
enc	enc46	old61	9	1	1441	0	434.55800000000005	437.55800000000005	0.5	432.05800000000005
enc	enc47	old44	6	4	431	0	438.05800000000005	441.05800000000005	2.0	437.05800000000005
enc	enc48	old27	9	1	1240	0	443.05699999999996	446.05699999999996	1.5	441.55699999999996
enc	enc49	old15	6	1	717	0	447.55699999999996	450.55699999999996	1.0	445.55699999999996
enc	enc50	old11	8	1	1153	0	451.55699999999996	454.55699999999996	2.5	451.05699999999996
enc	enc51	old63	9	4	932	0	457.056	460.056	5.5	459.556
enc	enc52	old67	8	4	433	0	465.556	468.555	2.5	465.056
ctl	ctl23		9	1	772	0	471.055	474.055	1.5	469.555
enc	enc53	old14	9	1	1180	0	475.555	478.555	0.5	473.055
ctl	ctl24		6	1	983	0	479.055	482.05400000000003	3.0	479.055
enc	enc54	old71	5	4	934	0	485.05400000000003	488.05400000000003	3.5	485.55400000000003
enc	enc55	old28	8	1	1304	0	491.55400000000003	494.55300000000005	7.5	496.05400000000003
enc	enc56	old30	5	4	934	0	502.05300000000005	505.05300000000005	2.5	501.55300000000005
enc	enc57	old40	6	4	435	0	507.55199999999996	510.55199999999996	0.5	505.05199999999996
ctl	ctl25		6	1	824	0	511.05199999999996	514.052	1.0	509.0519999999999
enc	enc58	old17	5	4	1435	0	515.052	518.0509999999999	4.0	516.052
enc	enc59	old46	6	1	1443	0	522.0509999999999	525.0509999999999	11.5	530.5509999999999
enc	enc60	old69	8	4	436	0	536.55	539.55	0.5	534.05
ctl	ctl26		6	1	697	0	540.05	543.05	4.0	541.05
ctl	ctl27		9	1	459	0	547.049	550.049	0.5	544.549
ctl	ctl28		5	4	437	0	550.549	553.549	2.5	550.049
enc	enc61	old29	5	1	1693	0	556.048	559.048	3.0	556.048
enc	enc62	old60	5	4	1438	0	562.048	565.048	1.0	560.048
ctl	ctl29		8	4	438	0	566.048	569.047	2.0	565.048
enc	enc63	old02	5	4	1438	0	571.047	574.047	0.5	568.547
enc	enc64	old03	9	1	1405	0	574.547	577.547	7.0	578.547
ctl	ctl30		9	4	439	0	584.5459999999999	587.5459999999999	0.5	582.0459999999999
enc	enc65	old57	9	4	440	0	588.0459999999999	591.0459999999999	0.5	585.5459999999999
enc	enc66	old42	5	1	1870	0	591.5459999999999	594.545	0.5	589.0459999999999
ctl	ctl31		6	4	939	0	595.045	598.045	1.5	593.545
ctl	ctl32		5	1	549	0	599.545	602.545	3.0	599.545
enc	enc67	old58	8	4	440	0	605.545	608.544	1.5	604.045
enc	enc68	old31	6	1	1430	0	610.044	613.044	4.5	611.544
ctl	ctl33		5	1	807	0	617.544	620.543	0.5	615.044
ctl	ctl34		8	1	624	0	621.043	624.043	8.0	626.043
enc	enc69	old01	6	4	1441	0	632.0419999999999	635.0419999999999	1.0	630.0419999999999
enc	enc70	old55	5	4	442	0	636.0419999999999	639.0419999999999	4.5	637.5419999999999
ctl	ctl35		8	1	848	0	643.5419999999999	646.5409999999999	2.0	642.5419999999999
ctl	ctl36		6	1	934	0	648.5409999999999	651.5409999999999	1.0	646.5409999999999
enc	enc71	old70	6	1	936	0	652.5409999999999	655.541	2.0	651.5409999999999
enc	enc72	old13	8	1	1427	0	657.54	660.54	2.0	656.54
ctl	ctl37		5	1	738	0	662.54	665.54	10.0	669.54
ctl	ctl38		8	1	643	0	675.539	678.539	3.5	676.039
enc	enc73	old73	9	1	1152	0	682.039	685.038	9.0	688.039
enc	enc74	old26	8	4	443	0	694.038	697.0369999999999	0.5	691.538
ctl	ctl39		9	4	944	0	697.5369999999999	700.5369999999999	7.0	701.5369999999999
enc	enc75	old47	9	1	1916	0	707.5369999999999	710.5360000000001	12.5	717.0369999999999
enc	enc76	old62	6	1	1690	0	723.035	726.035	2.5	722.535
enc	enc77	old36	5	1	1573	0	728.535	731.535	18.5	744.035
enc	enc78	old21	6	1	1410	0				
