trial_type	trialcode	oldnumber	correctsource	stim_resp	stim_rt	stim_acc	onset	fix_onset	fix_duration	duration
ctl	ctl0		5		0	1	4.538	7.537999999999999	0.5	2.0380000000000003
enc	enc00		8		0	1	8.037	11.037	0.5	5.537000000000001
enc	enc000		9		0	1	11.537	14.537	5.5	14.036999999999999
ctl	ctl01		8		0	1	20.035999999999998	23.035999999999998	0.5	17.535999999999998
enc	enc01	old64	6		0	1	23.535999999999998	26.535999999999998	1.0	21.535999999999998
enc	enc02	old02	5		0	1	27.535999999999998	30.535999999999998	1.0	25.535999999999998
enc	enc03	old17	6		0	1	31.535	34.535	1.5	30.034999999999997
enc	enc04	old74	9		0	1	36.035	39.035	2.0	35.035
enc	enc05	old55	8		0	1	41.035	44.034	3.0	41.035
enc	enc06	old47	9		0	1	47.034	50.034	0.5	44.534
ctl	ctl02		5		0	1	50.534	53.534	4.0	51.534
ctl	ctl03		6		0	1	57.533	60.533	2.5	57.033
enc	enc07	old38	8		0	1	63.033	66.032	1.5	61.533
ctl	ctl04		8		0	1	67.532	70.532	2.0	66.532
enc	enc08	old50	6		0	1	72.532	75.532	3.5	73.032
enc	enc09	old15	5		0	1	79.031	82.031	0.5	76.531
ctl	ctl05		8		0	1	82.531	85.531	2.5	82.031
enc	enc10	old31	6		0	1	88.031	91.03	0.5	85.531
enc	enc11	old06	6		0	1	91.53	94.53	1.0	89.53
enc	enc12	old14	8		0	1	95.53	98.53	1.5	94.03
enc	enc13	old68	5		0	1	100.03	103.029	2.5	99.53
enc	enc14	old25	9		0	1	105.529	108.529	3.0	105.529
enc	enc15	old30	9		0	1	111.529	114.52799999999999	1.0	109.529
enc	enc16	old27	5		0	1	115.52799999999999	118.52799999999999	1.5	114.02799999999999
enc	enc17	old18	5		0	1	120.02799999999999	123.02799999999999	1.5	118.52799999999999
ctl	ctl06		5		0	1	124.527	127.527	1.0	122.527
enc	enc18	old11	5		0	1	128.52700000000002	131.52700000000002	2.5	128.02700000000002
enc	enc19	old44	8		0	1	134.02700000000002	137.026	2.5	133.52700000000002
ctl	ctl07		5		0	1	139.526	142.526	0.5	137.026
enc	enc20	old66	6		0	1	143.026	146.026	5.5	145.526
enc	enc21	old63	5		0	1	151.525	154.525	5.5	154.025
enc	enc22	old78	6		0	1	160.024	163.024	2.0	159.024
enc	enc23	old07	5		0	1	165.024	168.024	1.0	163.024
enc	enc24	old13	8		0	1	169.024	172.023	3.0	169.024
enc	enc25	old42	5		0	1	175.023	178.023	3.5	175.523
enc	enc26	old53	9		0	1	181.523	184.52200000000002	0.5	179.023
ctl	ctl08		6		0	1	185.02200000000002	188.02200000000002	1.5	183.52200000000002
ctl	ctl09		9		0	1	189.52200000000002	192.52200000000002	9.5	196.02200000000002
ctl	ctl10		8		0	1	202.021	205.021	2.0	201.021
ctl	ctl11		5		0	1	207.02	210.02	2.0	206.02
enc	enc27	old40	8		0	1	212.02	215.02	1.0	210.02
ctl	ctl12		9		0	1	216.02	219.019	0.5	213.52
enc	enc28	old23	9		0	1	219.519	222.519	0.5	217.019
ctl	ctl13		6		0	1	223.019	226.019	2.0	222.019
enc	enc29	old28	8		0	1	228.019	231.018	4.5	229.519
enc	enc30	old54	6		0	1	235.518	238.518	3.5	236.018
enc	enc31	old03	9		0	1	242.017	245.017	8.0	247.017
enc	enc32	old69	6		0	1	253.016	256.01599999999996	9.0	259.01599999999996
enc	enc33	old26	9		0	1	265.015	268.015	0.5	262.515
enc	enc34	old20	6		0	1	268.515	271.515	2.5	268.015
ctl	ctl14		6		0	1	274.015	277.014	8.5	279.515
enc	enc35	old71	5		0	1	285.514	288.513	0.5	283.014
enc	enc36	old10	9		0	1	289.013	292.013	5.5	291.513
enc	enc37	old08	8		0	1	297.513	300.512	3.0	297.513
enc	enc38	old49	6		0	1	303.512	306.512	4.0	304.512
ctl	ctl15		6		0	1	310.512	313.51099999999997	6.5	314.012
ctl	ctl16		9		0	1	320.01099999999997	323.01099999999997	0.5	317.51099999999997
enc	enc39	old61	6		0	1	323.51	326.51	11.5	332.01
enc	enc40	old65	5		0	1	338.009	341.009	9.5	344.509
enc	enc41	old73	6		0	1	350.50800000000004	353.50800000000004	1.0	348.50800000000004
ctl	ctl17		8		0	1	354.50800000000004	357.50800000000004	5.5	357.00800000000004
enc	enc42	old56	9		0	1	363.00699999999995	366.00699999999995	1.5	361.50699999999995
enc	enc43	old21	8		0	1	367.50699999999995	370.506	1.0	365.50699999999995
enc	enc44	old36	9		0	1	371.506	374.506	2.0	370.506
ctl	ctl18		9		0	1	376.506	379.506	3.5	377.006
enc	enc45	old22	8		0	1	383.005	386.005	1.5	381.505
enc	enc46	old37	9		0	1	387.505	390.505	0.5	385.005
ctl	ctl19		8		0	1	391.005	394.004	2.5	390.505
ctl	ctl20		5		0	1	396.504	399.504	0.5	394.004
ctl	ctl21		5		0	1	400.004	403.004	2.5	399.504
ctl	ctl22		8		0	1	405.50300000000004	408.50300000000004	2.0	404.50300000000004
ctl	ctl23		9		0	1	410.50300000000004	413.50300000000004	11.0	418.50300000000004
ctl	ctl24		8		0	1	424.50199999999995	427.50199999999995	1.0	422.50199999999995
enc	enc47	old34	6		0	1	428.501	431.501	1.5	427.001
enc	enc48	old01	6		0	1	433.001	436.001	0.5	430.501
enc	enc49	old48	8		0	1	436.501	439.5	0.5	434.001
enc	enc50	old41	9		0	1	440.0	443.0	2.0	439.0
enc	enc51	old12	6		0	1	445.0	448.0	1.0	443.0
ctl	ctl25		9		0	1	449.0	451.999	2.0	448.0
ctl	ctl26		5		0	1	453.999	456.999	4.0	454.999
enc	enc52	old46	5		0	1	460.999	463.99800000000005	4.5	462.499
enc	enc53	old62	9		0	1	468.49800000000005	471.49800000000005	8.5	473.99800000000005
enc	enc54	old45	8		0	1	479.99699999999996	482.99699999999996	1.0	477.99699999999996
enc	enc55	old58	8		0	1	483.99699999999996	486.996	6.0	486.99699999999996
ctl	ctl27		6		0	1	492.996	495.996	1.5	491.496
enc	enc56	old35	6		0	1	497.496	500.495	13.0	507.496
ctl	ctl28		6		0	1	513.494	516.494	1.5	511.994
enc	enc57	old60	9		0	1	517.994	520.994	1.5	516.494
enc	enc58	old67	9		0	1	522.493	525.493	7.5	526.993
enc	enc59	old59	5		0	1	532.993	535.992	1.5	531.493
ctl	ctl29		9		0	1	537.492	540.492	3.5	537.992
enc	enc60	old57	8		0	1	543.992	546.991	1.0	541.992
ctl	ctl30		8		0	1	547.991	550.991	1.5	546.491
enc	enc61	old09	8		0	1	552.491	555.491	3.5	552.991
ctl	ctl31		8		0	1	558.99	561.99	4.5	560.49
enc	enc62	old39	5		0	1	566.49	569.489	3.0	566.49
ctl	ctl32		5		0	1	572.489	575.489	0.5	569.989
enc	enc63	old75	8		0	1	575.989	578.989	8.0	580.989
enc	enc64	old76	9		0	1	586.988	589.988	5.0	588.988
ctl	ctl33		9		0	1	594.987	597.987	0.5	592.487
ctl	ctl34		9		0	1	598.487	601.487	1.0	596.487
enc	enc65	old77	8		0	1	602.487	605.486	11.5	610.987
enc	enc66	old70	8		0	1	616.985	619.985	2.5	616.485
ctl	ctl35		6		0	1	622.485	625.485	2.0	621.485
enc	enc67	old05	5		0	1	627.484	630.484	0.5	624.984
enc	enc68	old04	9		0	1	630.984	633.984	1.0	628.984
enc	enc69	old33	5		0	1	634.984	637.984	1.0	632.984
enc	enc70	old52	9		0	1	638.9830000000001	641.9830000000001	0.5	636.4830000000001
enc	enc71	old29	8		0	1	642.4830000000001	645.4830000000001	7.5	646.9830000000001
ctl	ctl36		6		0	1	652.982	655.982	15.0	664.982
enc	enc72	old19	6		0	1	670.9810000000001	673.98	0.5	668.4810000000001
enc	enc73	old72	9		0	1	674.48	677.48	1.0	672.48
ctl	ctl37		5		0	1	678.48	681.48	0.5	675.98
ctl	ctl38		6		0	1	681.98	684.98	9.0	687.98
enc	enc74	old51	5		0	1	693.9789999999999	696.9780000000001	6.0	696.9789999999999
enc	enc75	old43	6		0	1	702.9780000000001	705.9780000000001	10.5	710.4780000000001
ctl	ctl39		9		0	1	716.477	719.477	5.0	718.477
enc	enc76	old16	5		0	1	724.4760000000001	727.4760000000001	1.0	722.4760000000001
enc	enc77	old32	5		0	1	728.4760000000001	731.4760000000001	18.5	743.9760000000001
enc	enc78	old24	8		0	1				
