trial_type	trialcode	oldnumber	correctsource	stim_resp	stim_rt	stim_acc	onset	fix_onset	fix_duration	duration
enc	enc00		8	1.0	1454	0	7.515	10.524000000000001	0.5	5.015000000000001
enc	enc000		9	1.0	1036	0	11.026	14.035	0.5	8.526
ctl	ctl0		8	1.0	1317	0	14.536	17.545	6.5	18.036
enc	enc01	old54	6	1.0	1175	0	24.031	27.04	2.0	23.031
enc	enc02	old03	5	1.0	1448	0	29.03	32.039	1.5	27.53
enc	enc03	old26	6	1.0	1041	0	33.527	36.536	1.0	31.527
enc	enc04	old66	9	1.0	1192	0	37.539	40.548	8.5	43.039
enc	enc05	old59	8	1.0	1036	0	49.04	52.049	2.0	48.04
enc	enc06	old48	9	1.0	990	0	54.038000000000004	57.047	2.5	53.538000000000004
enc	enc07	old31	8	1.0	1056	0	59.538000000000004	62.547	1.5	58.038000000000004
ctl	ctl01		8	1.0	980	0	64.03399999999999	67.043	1.5	62.53399999999999
ctl	ctl02		5	1.0	1220	0	68.531	71.54	0.5	66.031
enc	enc08	old49	6	1.0	1115	0	72.042	75.051	0.5	69.542
ctl	ctl03		6	1.0	764	0	75.55199999999999	78.561	2.0	74.55199999999999
enc	enc09	old15	5	1.0	934	0	80.55	83.559	1.5	79.05
enc	enc10	old27	6	1.0	1080	0	85.04700000000001	88.056	2.0	84.04700000000001
ctl	ctl04		8	1.0	950	0	90.045	93.054	7.5	94.545
enc	enc11	old13	6	1.0	880	0	100.54299999999999	103.552	5.0	102.54299999999999
enc	enc12	old17	8	1.0	1678	0	108.551	111.56	1.5	107.051
enc	enc13	old69	5		0	1	113.04700000000001	116.056	3.0	113.04700000000001
enc	enc14	old18	9	1.0	1550	0	119.04899999999999	122.05799999999999	1.0	117.04899999999999
enc	enc15	old28	9	1.0	1444	0	123.061	126.07	1.5	121.561
enc	enc16	old29	5	1.0	1295	0	127.55799999999999	130.567	8.5	133.058
enc	enc17	old23	5	1.0	1350	0	139.059	142.06799999999998	2.0	138.059
enc	enc18	old09	5	1.0	1393	0	144.05700000000002	147.066	1.0	142.05700000000002
ctl	ctl05		8	1.0	971	0	148.069	151.078	1.5	146.569
ctl	ctl06		5	1.0	751	0	152.566	155.575	6.5	156.066
enc	enc19	old50	8	1.0	878	0	162.077	165.08599999999998	1.5	160.577
enc	enc20	old71	6	1.0	1038	0	166.574	169.583	6.5	170.074
enc	enc21	old64	5	1.0	1085	0	176.08599999999998	179.095	3.5	176.58599999999998
ctl	ctl07		5	1.0	629	0	182.58900000000003	185.59799999999998	8.0	187.58900000000003
enc	enc22	old72	6	1.0	1118	0	193.588	196.597	13.0	203.588
enc	enc23	old02	5	1.0	855	0	209.58599999999998	212.595	1.0	207.58599999999998
ctl	ctl08		6	1.0	816	0	213.59799999999998	216.607	2.5	213.09799999999998
enc	enc24	old04	8	1.0	1124	0	219.09799999999998	222.107	1.5	217.59799999999998
enc	enc25	old44	5	1.0	1072	0	223.59400000000002	226.60299999999998	3.5	224.09400000000002
enc	enc26	old57	9	1.0	1256	0	230.097	233.106	2.0	229.097
enc	enc27	old47	8	1.0	1289	0	235.09599999999998	238.105	3.0	235.09599999999998
enc	enc28	old14	9	1.0	1138	0	241.097	244.106	7.0	245.097
enc	enc29	old36	8	1.0	1185	0	251.093	254.102	1.0	249.093
enc	enc30	old62	6	1.0	1716	0	255.08900000000003	258.098	0.5	252.58900000000003
ctl	ctl09		9	1.0	712	0	258.599	261.608	1.0	256.599
ctl	ctl10		8	1.0	874	0	262.594	265.603	0.5	260.094
enc	enc31	old10	9	1.0	927	0	266.105	269.11400000000003	7.0	270.105
enc	enc32	old74	6	1.0	1576	0	276.101	279.11	4.0	277.101
enc	enc33	old19	9	1.0	1164	0	283.106	286.115	2.0	282.106
enc	enc34	old22	6	1.0	1646	0	288.10400000000004	291.113	2.5	287.60400000000004
ctl	ctl11		5	1.0	784	0	293.60400000000004	296.613	4.5	295.10400000000004
enc	enc35	old67	5	1.0	1044	0	301.10900000000004	304.118	0.5	298.60900000000004
enc	enc36	old06	9	1.0	1099	0	304.62	307.629	3.0	304.62
ctl	ctl12		9	1.0	876	0	310.621	313.63	2.0	309.621
enc	enc37	old11	8	1.0	2075	0	315.619	318.628	0.5	313.119
ctl	ctl13		6	1.0	893	0	319.13	322.139	1.0	317.13
ctl	ctl14		6	1.0	878	0	323.142	326.151	2.5	322.642
ctl	ctl15		6	1.0	1017	0	328.642	331.651	6.5	332.142
ctl	ctl16		9	1.0	933	0	338.153	341.162	9.5	344.653
enc	enc38	old46	6	1.0	1206	0	350.657	353.666	3.0	350.657
enc	enc39	old61	6	1.0	1270	0	356.659	359.668	3.0	356.659
enc	enc40	old56	5	1.0	1900	0	362.66	365.66900000000004	1.0	360.66
enc	enc41	old77	6	1.0	1970	0	366.67199999999997	369.681	2.0	365.67199999999997
enc	enc42	old65	9	1.0	942	0	371.67	374.67900000000003	1.0	369.67
enc	enc43	old24	8	1.0	992	0	375.666	378.675	0.5	373.166
enc	enc44	old39	9	1.0	1780	0	379.176	382.185	2.5	378.676
enc	enc45	old25	8		0	1	384.676	387.685	8.5	390.176
enc	enc46	old30	9	1.0	1082	0	396.17699999999996	399.186	5.5	398.67699999999996
enc	enc47	old34	6	1.0	1333	0	404.686	407.695	2.0	403.686
enc	enc48	old01	6	1.0	1319	0	409.684	412.69300000000004	6.0	412.684
enc	enc49	old51	8	1.0	681	0	418.694	421.70300000000003	6.0	421.694
enc	enc50	old43	9	1.0	1159	0	427.704	430.713	1.5	426.204
enc	enc51	old12	6	1.0	1061	0	432.20099999999996	435.21	2.0	431.20099999999996
ctl	ctl17		8	1.0	852	0	437.199	440.208	1.5	435.699
enc	enc52	old45	5	1.0	846	0	441.69599999999997	444.705	4.0	442.69599999999997
ctl	ctl18		9	1.0	2676	0	448.7	451.709	0.5	446.2
ctl	ctl19		8	1.0	712	0	452.211	455.22	6.0	455.211
ctl	ctl20		5	1.0	849	0	461.221	464.23	0.5	458.721
enc	enc53	old58	9	1.0	575	0	464.73199999999997	467.741	2.5	464.23199999999997
enc	enc54	old40	8	1.0	1056	0	470.231	473.24	1.5	468.731
enc	enc55	old63	8	1.0	1509	0	474.728	477.73699999999997	2.5	474.228
enc	enc56	old32	6	1.0	1332	0	480.228	483.23699999999997	5.5	482.728
ctl	ctl21		5	1.0	1216	0	488.73699999999997	491.746	4.5	490.23699999999997
enc	enc57	old55	9	1.0	1274	0	496.24300000000005	499.251	2.5	495.74300000000005
ctl	ctl22		8	1.0	712	0	501.74199999999996	504.751	6.5	505.24199999999996
enc	enc58	old70	9	1.0	1013	0	511.254	514.263	6.5	514.754
ctl	ctl23		9	1.0	685	0	520.766	523.775	1.5	519.266
ctl	ctl24		8	1.0	557	0	525.263	528.2719999999999	4.5	526.763
ctl	ctl25		9	1.0	619	0	532.768	535.7769999999999	1.5	531.268
ctl	ctl26		5	1.0	554	0	537.265	540.274	0.5	534.765
enc	enc59	old60	5	1.0	1833	0	540.776	543.785	10.5	548.276
ctl	ctl27		6		0	1	554.283	557.2919999999999	4.5	555.783
ctl	ctl28		6	1.0	775	0	561.788	564.797	2.0	560.788
enc	enc60	old53	8	1.0	1181	0	566.7869999999999	569.7959999999999	1.5	565.2869999999999
ctl	ctl29		9	1.0	774	0	571.283	574.2919999999999	12.5	580.783
enc	enc61	old05	8	1.0	758	0	586.78	589.789	2.0	585.78
enc	enc62	old37	5	1.0	1013	0	591.778	594.7869999999999	1.0	589.778
enc	enc63	old76	8	1.0	823	0	595.79	598.799	4.0	596.79
ctl	ctl30		8		0	1	602.794	605.803	0.5	600.294
enc	enc64	old75	9	1.0	1806	0	606.305	609.314	4.0	607.305
enc	enc65	old68	8	1.0	1055	0	613.309	616.318	3.5	613.809
enc	enc66	old78	8	1.0	1067	0	619.812	622.821	1.0	617.812
ctl	ctl31		8	1.0	1052	0	623.8240000000001	626.8330000000001	0.5	621.3240000000001
ctl	ctl32		5	1.0	640	0	627.3340000000001	630.3430000000001	2.5	626.8340000000001
enc	enc67	old08	5	1.0	674	0	632.8340000000001	635.8430000000001	0.5	630.3340000000001
ctl	ctl33		9	1.0	638	0	636.344	639.3530000000001	9.0	642.344
ctl	ctl34		9	1.0	528	0	648.347	651.356	2.0	647.347
ctl	ctl35		6	1.0	572	0	653.345	656.3539999999999	0.5	650.845
enc	enc68	old07	9	1.0	1006	0	656.8560000000001	659.865	2.0	655.8560000000001
ctl	ctl36		6	1.0	1063	0	661.8539999999999	664.863	4.5	663.3539999999999
ctl	ctl37		5	1.0	521	0	669.36	672.3689999999999	4.5	670.86
ctl	ctl38		6	1.0	959	0	676.8660000000001	679.875	3.5	677.3660000000001
enc	enc69	old35	5	1.0	581	0	683.368	686.377	1.5	681.868
enc	enc70	old52	9	1.0	1630	0	687.865	690.8739999999999	4.5	689.365
enc	enc71	old33	8	1.0	1029	0	695.3710000000001	698.38	0.5	692.8710000000001
enc	enc72	old21	6	1.0	1547	0	698.8810000000001	701.89	0.5	696.3810000000001
enc	enc73	old73	9	1.0	1245	0	702.3919999999999	705.4010000000001	5.0	704.3919999999999
ctl	ctl39		9		0	1	710.3989999999999	713.408	4.5	711.8989999999999
enc	enc74	old42	5	1.0	975	0	717.905	720.914	5.5	720.405
enc	enc75	old41	6	1.0	1093	0	726.414	729.423	1.0	724.414
enc	enc76	old20	5	1.0	831	0	730.426	733.435	0.5	727.926
enc	enc77	old38	5	1.0	1275	0	733.936	736.945	13.5	744.436
enc	enc78	old16	8	1.0	1085	0				
