trial_type	trialcode	oldnumber	correctsource	stim_resp	stim_rt	stim_acc	onset	fix_onset	fix_duration	duration
ctl	ctl0		9	3	1249	0	5.031000000000001	8.031	3.0	5.031000000000001
enc	enc00		5	3	848	0	11.03	14.03	2.0	10.03
enc	enc000		9	3	1153	0	16.03	19.03	1.0	14.030000000000001
ctl	ctl01		6	3	857	0	20.03	23.029	8.0	25.03
enc	enc01	old54	8	3	1193	0	31.029	34.028	7.5	35.528999999999996
enc	enc02	old09	5	3	1226	0	41.528	44.528	0.5	39.028
enc	enc03	old58	5	3	1327	0	45.028	48.027	6.0	48.028
enc	enc04	old45	6	3	2002	0	54.027	57.026	2.0	53.027
enc	enc05	old49	5	3	1219	0	59.026	62.026	2.0	58.026
enc	enc06	old76	9	3	1300	0	64.02600000000001	67.02600000000001	4.0	65.02600000000001
ctl	ctl02		5	3	1108	0	71.025	74.025	2.5	70.525
ctl	ctl03		6	3	909	0	76.525	79.525	1.5	75.025
ctl	ctl04		6	3	809	0	81.024	84.024	5.0	83.024
ctl	ctl05		9	3	862	0	89.024	92.024	1.0	87.024
enc	enc07	old53	6	3	1189	0	93.023	96.023	3.0	93.023
enc	enc08	old06	8	3	1566	0	99.023	102.023	3.0	99.023
ctl	ctl06		9	3	1358	0	105.022	108.022	2.5	104.522
enc	enc09	old48	9	3	1247	0	110.522	113.522	6.5	114.022
enc	enc10	old11	5	3	1795	0	120.021	123.021	2.5	119.521
enc	enc11	old37	9	3	1032	0	125.521	128.52	2.0	124.521
enc	enc12	old36	5	3	1372	0	130.52	133.52	4.5	132.02
enc	enc13	old75	8	3	2005	0	138.02	141.019	4.5	139.52
enc	enc14	old67	8	3	1080	0	145.519	148.519	2.5	145.019
enc	enc15	old74	9	3	1917	0	151.018	154.018	1.0	149.018
enc	enc16	old73	8	3	1466	0	155.018	158.018	1.5	153.518
enc	enc17	old02	5	3	1674	0	159.518	162.517	4.0	160.518
ctl	ctl07		5	3	1406	0	166.517	169.517	3.0	166.517
ctl	ctl08		8	3	847	0	172.517	175.516	1.0	170.517
enc	enc18	old29	8	3	967	0	176.516	179.516	1.0	174.516
enc	enc19	old22	8	3	1568	0	180.516	183.516	0.5	178.016
enc	enc20	old16	5	3	1776	0	184.016	187.015	3.5	184.516
enc	enc21	old66	9	3	1667	0	190.515	193.515	4.5	192.015
enc	enc22	old26	9	3	1392	0	198.014	201.014	9.5	204.514
ctl	ctl09		8	3	1517	0	210.513	213.513	3.5	211.013
enc	enc23	old01	6	3	1130	0	217.013	220.013	4.0	218.013
ctl	ctl10		9	3	1030	0	224.012	227.012	4.0	225.012
enc	enc24	old18	8	3	1150	0	231.012	234.011	1.0	229.012
enc	enc25	old40	8	3	1150	0	235.011	238.011	6.0	238.011
enc	enc26	old20	9	3	1727	0	244.011	247.01	6.5	247.511
enc	enc27	old46	5	3	1415	0	253.51	256.509	2.0	252.51
enc	enc28	old28	6	3	1588	0	258.509	261.509	1.5	257.009
enc	enc29	old47	9	3	1229	0	263.009	266.009	2.5	262.509
enc	enc30	old41	8	3	1649	0	268.508	271.508	4.5	270.008
enc	enc31	old34	6	3	1558	0	276.008	279.007	0.5	273.508
enc	enc32	old05	6	3	1345	0	279.507	282.507	1.0	277.507
ctl	ctl11		6	3	1174	0	283.507	286.507	1.5	282.007
enc	enc33	old12	9	3	1022	0	288.007	291.006	2.0	287.007
enc	enc34	old59	8	3	1810	0	293.006	296.006	4.0	294.006
ctl	ctl12		6	3	1123	0	300.006	303.005	2.0	299.006
enc	enc35	old04	9	3	1283	0	305.005	308.005	2.5	304.505
enc	enc36	old56	8	3	2444	0	310.505	313.505	2.0	309.505
enc	enc37	old25	9	3	1824	0	315.504	318.504	14.5	327.004
enc	enc38	old71	6	3	2064	0	333.00300000000004	336.00300000000004	4.0	334.00300000000004
enc	enc39	old19	5	3	1029	0	340.00199999999995	343.00199999999995	1.5	338.50199999999995
ctl	ctl13		5	3	846	0	344.50199999999995	347.50199999999995	1.0	342.50199999999995
enc	enc40	old14	6	3	1050	0	348.50199999999995	351.501	3.0	348.50199999999995
ctl	ctl14		9	3	1050	0	354.501	357.501	5.5	357.001
ctl	ctl15		8	3	859	0	363.0	366.0	2.0	362.0
ctl	ctl16		9	3	887	0	368.0	371.0	2.5	367.5
enc	enc41	old43	6	3	1207	0	373.499	376.499	3.0	373.499
enc	enc42	old33	8	3	996	0	379.499	382.499	3.0	379.499
enc	enc43	old32	9	3	1140	0	385.49800000000005	388.49800000000005	2.0	384.49800000000005
enc	enc44	old68	5	3	1229	0	390.49800000000005	393.49800000000005	5.0	392.49800000000005
enc	enc45	old63	6	3	1349	0	398.49699999999996	401.49699999999996	4.5	399.99699999999996
enc	enc46	old55	9	3	1701	0	405.99699999999996	408.996	10.5	413.49699999999996
ctl	ctl17		8	3	1065	0	419.495	422.495	2.5	418.995
enc	enc47	old69	6	3	911	0	424.995	427.995	2.5	424.495
enc	enc48	old35	9	3	1019	0	430.495	433.494	6.0	433.495
ctl	ctl18		5	3	1095	0	439.494	442.494	3.5	439.994
ctl	ctl19		5	3	840	0	445.99300000000005	448.99300000000005	1.5	444.49300000000005
enc	enc49	old17	6	3	1036	0	450.49300000000005	453.49300000000005	2.5	449.99300000000005
ctl	ctl20		8	3	1176	0	455.99199999999996	458.99199999999996	4.0	456.99199999999996
ctl	ctl21		9	3	957	0	462.99199999999996	465.991	2.0	461.99199999999996
enc	enc50	old10	8	3	869	0	467.991	470.991	3.0	467.991
enc	enc51	old57	9	3	1270	0	473.991	476.991	3.0	473.991
ctl	ctl22		8	3	982	0	479.99	482.99	4.0	480.99
enc	enc52	old51	8	3	927	0	486.99	489.98900000000003	0.5	484.49
enc	enc53	old21	9	3	1175	0	490.48900000000003	493.48900000000003	8.0	495.48900000000003
ctl	ctl23		9	3	1252	0	501.48800000000006	504.48800000000006	3.0	501.48800000000006
ctl	ctl24		6	3	812	0	507.48800000000006	510.48800000000006	0.5	504.98800000000006
enc	enc54	old42	5	3	940	0	510.98800000000006	513.987	1.5	509.48800000000006
enc	enc55	old30	8	3	1792	0	515.487	518.487	4.0	516.487
enc	enc56	old39	5	3	1445	0	522.487	525.486	5.0	524.487
ctl	ctl25		6	3	925	0	530.486	533.486	7.5	534.986
enc	enc57	old78	6	3	782	0	540.985	543.985	1.0	538.985
ctl	ctl26		6	3	946	0	544.985	547.984	1.5	543.485
ctl	ctl27		9	3	890	0	549.484	552.484	0.5	546.984
enc	enc58	old24	5	3	1023	0	552.984	555.984	1.5	551.484
enc	enc59	old70	6	3	1403	0	557.484	560.4830000000001	2.0	556.484
enc	enc60	old50	8	3	871	0	562.4830000000001	565.4830000000001	1.0	560.4830000000001
ctl	ctl28		5	3	808	0	566.4830000000001	569.4830000000001	5.0	568.4830000000001
ctl	ctl29		8	3	768	0	574.482	577.482	2.0	573.482
ctl	ctl30		9	3	705	0	579.482	582.482	5.5	581.982
ctl	ctl31		6	3	785	0	587.981	590.981	0.5	585.481
enc	enc61	old38	5	3	653	0	591.481	594.48	8.0	596.481
ctl	ctl32		5	3	1137	0	602.48	605.48	1.0	600.48
enc	enc62	old64	5	3	1522	0	606.479	609.479	0.5	603.979
ctl	ctl33		5	3	1243	0	609.979	612.979	3.5	610.479
enc	enc63	old07	5	3	1663	0	616.479	619.4780000000001	1.5	614.979
enc	enc64	old13	9	3	1043	0	620.9780000000001	623.9780000000001	2.5	620.4780000000001
enc	enc65	old60	9	3	1984	0	626.4780000000001	629.477	9.5	632.9780000000001
enc	enc66	old72	5	3	1699	0	638.977	641.976	0.5	636.477
enc	enc67	old61	8	3	1824	0	642.476	645.476	1.0	640.476
ctl	ctl34		8	3	1141	0	646.476	649.476	3.0	646.476
enc	enc68	old27	6	3	1669	0	652.476	655.475	1.0	650.476
enc	enc69	old03	6	3	1013	0	656.475	659.475	2.0	655.475
ctl	ctl35		8	3	1190	0	661.475	664.4739999999999	0.5	658.975
ctl	ctl36		6	3	814	0	664.9739999999999	667.9739999999999	2.0	663.9739999999999
enc	enc70	old62	5	3	963	0	669.9739999999999	672.9739999999999	8.5	675.4739999999999
ctl	ctl37		5	3	915	0	681.4730000000001	684.4730000000001	1.5	679.9730000000001
enc	enc71	old44	6	3	743	0	685.9730000000001	688.972	1.0	683.9730000000001
enc	enc72	old08	8	3	1595	0	689.972	692.972	1.0	687.972
enc	enc73	old52	9	3	1140	0	693.972	696.972	4.0	694.972
enc	enc74	old15	8	3	1532	0	700.971	703.971	9.5	707.471
enc	enc75	old77	9	3	813	0	713.47	716.47	4.5	714.97
ctl	ctl38		8	3	842	0	720.97	723.9689999999999	0.5	718.47
ctl	ctl39		9	3	765	0	724.4689999999999	727.4689999999999	4.0	725.4689999999999
enc	enc76	old65	6	3	1018	0	731.4689999999999	734.4689999999999	1.0	729.4689999999999
enc	enc77	old31	5	3	1242	0	735.4680000000001	738.4680000000001	11.5	743.9680000000001
enc	enc78	old23	6	3	2091	0				
