trial_type	trialcode	oldnumber	correctsource	stim_resp	stim_rt	stim_acc	onset	fix_onset	fix_duration	duration
enc	enc00		8	1.0	1876	0	7.526	10.535	0.5	5.026
enc	enc000		9	1.0	1002	0	11.036	14.045	0.5	8.536
ctl	ctl0		8	1.0	1268	0	14.547	17.555999999999997	6.5	18.047
enc	enc01	old62	6	1.0	1053	0	24.059	27.068	2.0	23.059
enc	enc02	old11	5	1.0	869	0	29.057	32.066	1.5	27.557
enc	enc03	old15	6	1.0	895	0	33.554	36.563	1.0	31.554000000000002
enc	enc04	old77	9	1.0	1622	0	37.566	40.575	8.5	43.066
enc	enc05	old59	8	1.0	1042	0	49.067	52.076	2.0	48.067
enc	enc06	old41	9	1.0	988	0	54.065	57.074	2.5	53.565
enc	enc07	old37	8	1.0	1230	0	59.565	62.574	1.5	58.065
ctl	ctl01		8	1.0	842	0	64.062	67.071	1.5	62.562
ctl	ctl02		5	1.0	801	0	68.558	71.567	0.5	66.058
enc	enc08	old50	6	1.0	1009	0	72.069	75.078	0.5	69.569
ctl	ctl03		6	1.0	1218	0	75.579	78.58800000000001	2.0	74.579
enc	enc09	old18	5	1.0	948	0	80.578	83.587	1.5	79.078
enc	enc10	old33	6	1.0	909	0	85.074	88.083	2.0	84.074
ctl	ctl04		8	1.0	892	0	90.073	93.08200000000001	7.5	94.573
enc	enc11	old08	6	1.0	805	0	100.571	103.58	5.0	102.571
enc	enc12	old17	8	1.0	907	0	108.57799999999999	111.587	1.5	107.07799999999999
enc	enc13	old71	5	1.0	940	0	113.075	116.084	3.0	113.075
enc	enc14	old16	9	1.0	939	0	119.07600000000001	122.085	1.0	117.07600000000001
enc	enc15	old30	9	1.0	1346	0	123.071	126.08	1.5	121.571
enc	enc16	old39	5	1.0	1423	0	127.568	130.577	8.5	133.06799999999998
enc	enc17	old23	5	1.0	918	0	139.069	142.078	2.0	138.069
enc	enc18	old09	5	1.0	800	0	144.06799999999998	147.077	1.0	142.06799999999998
ctl	ctl05		8	1.0	857	0	148.08	151.089	1.5	146.58
ctl	ctl06		5	1.0	621	0	152.576	155.585	6.5	156.076
enc	enc19	old42	8	1.0	845	0	162.071	165.08	1.5	160.571
enc	enc20	old70	6	1.0	782	0	166.56799999999998	169.577	6.5	170.06799999999998
enc	enc21	old57	5	1.0	965	0	176.08	179.08900000000003	3.5	176.58
ctl	ctl07		5	1.0	788	0	182.583	185.592	8.0	187.583
enc	enc22	old68	6	1.0	717	0	193.582	196.59099999999998	13.0	203.582
enc	enc23	old10	5	1.0	814	0	209.58	212.58900000000003	1.0	207.58
ctl	ctl08		6	1.0	840	0	213.575	216.584	2.5	213.075
enc	enc24	old05	8	1.0	973	0	219.075	222.084	1.5	217.575
enc	enc25	old51	5	1.0	745	0	223.572	226.581	3.5	224.072
enc	enc26	old65	9	1.0	791	0	230.075	233.084	2.0	229.075
enc	enc27	old46	8	1.0	784	0	235.07299999999998	238.082	3.0	235.07299999999998
enc	enc28	old14	9	1.0	978	0	241.074	244.083	7.0	245.074
enc	enc29	old38	8	1.0	969	0	251.071	254.08	1.0	249.071
enc	enc30	old64	6	1.0	852	0	255.083	258.092	0.5	252.583
ctl	ctl09		9	1.0	2112	0	258.593	261.60200000000003	1.0	256.593
ctl	ctl10		8	1.0	698	0	262.589	265.598	0.5	260.089
enc	enc31	old07	9	1.0	1046	0	266.099	269.108	7.0	270.099
enc	enc32	old72	6	1.0	919	0	276.096	279.105	4.0	277.096
enc	enc33	old21	9	1.0	770	0	283.1	286.10900000000004	2.0	282.1
enc	enc34	old20	6	1.0	822	0	288.098	291.107	2.5	287.598
ctl	ctl11		5	1.0	792	0	293.598	296.607	4.5	295.098
enc	enc35	old74	5	1.0	596	0	301.10400000000004	304.113	0.5	298.60400000000004
enc	enc36	old02	9	1.0	850	0	304.61400000000003	307.623	3.0	304.61400000000003
ctl	ctl12		9	1.0	1028	0	310.616	313.625	2.0	309.616
enc	enc37	old03	8	1.0	842	0	315.61400000000003	318.623	0.5	313.11400000000003
ctl	ctl13		6	1.0	659	0	319.125	322.134	1.0	317.125
ctl	ctl14		6	1.0	804	0	323.137	326.14599999999996	2.5	322.637
ctl	ctl15		6	1.0	616	0	328.63599999999997	331.645	6.5	332.13599999999997
ctl	ctl16		9	1.0	789	0	338.131	341.14	9.5	344.631
enc	enc38	old47	6	1.0	726	0	350.635	353.644	3.0	350.635
enc	enc39	old54	6	1.0	950	0	356.63699999999994	359.64599999999996	3.0	356.63699999999994
enc	enc40	old56	5	1.0	1788	0	362.63800000000003	365.647	1.0	360.63800000000003
enc	enc41	old66	6		0	1	366.65	369.659	2.0	365.65
enc	enc42	old63	9	1.0	862	0	371.648	374.657	1.0	369.648
enc	enc43	old22	8	1.0	768	0	375.644	378.653	0.5	373.144
enc	enc44	old35	9	1.0	620	0	379.154	382.163	2.5	378.654
enc	enc45	old24	8	1.0	1150	0	384.654	387.663	8.5	390.154
enc	enc46	old27	9	1.0	722	0	396.155	399.164	5.5	398.655
enc	enc47	old29	6	1.0	677	0	404.664	407.673	2.0	403.664
enc	enc48	old06	6	1.0	407	0	409.662	412.671	6.0	412.662
enc	enc49	old48	8	1.0	657	0	418.67199999999997	421.681	6.0	421.67199999999997
enc	enc50	old44	9	1.0	775	0	427.68300000000005	430.69199999999995	1.5	426.18300000000005
enc	enc51	old13	6	1.0	1404	0	432.17900000000003	435.18800000000005	2.0	431.17900000000003
ctl	ctl17		8	1.0	948	0	437.17800000000005	440.18699999999995	1.5	435.67800000000005
enc	enc52	old43	5	1.0	541	0	441.67400000000004	444.68300000000005	4.0	442.67400000000004
ctl	ctl18		9	1.0	797	0	448.67900000000003	451.68800000000005	0.5	446.17900000000003
ctl	ctl19		8	1.0	615	0	452.189	455.19800000000004	6.0	455.189
ctl	ctl20		5	1.0	673	0	461.2	464.209	0.5	458.7
enc	enc53	old55	9		0	1	464.71	467.719	2.5	464.21
enc	enc54	old40	8		0	1	470.21	473.219	1.5	468.71
enc	enc55	old53	8		0	1	474.707	477.716	2.5	474.207
enc	enc56	old32	6		0	1	480.20599999999996	483.215	5.5	482.70599999999996
ctl	ctl21		5	1.0	720	0	488.715	491.724	4.5	490.215
enc	enc57	old58	9	1.0	619	0	496.221	499.23	2.5	495.721
ctl	ctl22		8	1.0	776	0	501.721	504.73	6.5	505.221
enc	enc58	old69	9	1.0	596	0	511.233	514.242	6.5	514.733
ctl	ctl23		9	1.0	644	0	520.744	523.753	1.5	519.244
ctl	ctl24		8	1.0	605	0	525.241	528.25	4.5	526.741
ctl	ctl25		9	1.0	628	0	532.747	535.756	1.5	531.247
ctl	ctl26		5	1.0	554	0	537.244	540.253	0.5	534.744
enc	enc59	old60	5	1.0	529	0	540.754	543.763	10.5	548.254
ctl	ctl27		6	1.0	842	0	554.261	557.27	4.5	555.761
ctl	ctl28		6	1.0	639	0	561.7669999999999	564.776	2.0	560.7669999999999
enc	enc60	old61	8	1.0	613	0	566.765	569.774	1.5	565.265
ctl	ctl29		9	1.0	631	0	571.262	574.271	12.5	580.762
enc	enc61	old04	8	1.0	342	0	586.758	589.7669999999999	2.0	585.758
enc	enc62	old36	5	1.0	581	0	591.757	594.766	1.0	589.757
enc	enc63	old73	8	1.0	598	0	595.769	598.778	4.0	596.769
ctl	ctl30		8	1.0	882	0	602.773	605.7819999999999	0.5	600.273
enc	enc64	old67	9	1.0	894	0	606.283	609.2919999999999	4.0	607.283
enc	enc65	old75	8	1.0	856	0	613.288	616.297	3.5	613.788
enc	enc66	old78	8	1.0	635	0	619.7909999999999	622.8	1.0	617.7909999999999
ctl	ctl31		8	1.0	1316	0	623.803	626.812	0.5	621.303
ctl	ctl32		5	1.0	600	0	627.313	630.322	2.5	626.813
enc	enc67	old01	5	1.0	770	0	632.813	635.822	0.5	630.313
ctl	ctl33		9	1.0	541	0	636.323	639.332	9.0	642.323
ctl	ctl34		9	1.0	567	0	648.326	651.335	2.0	647.326
ctl	ctl35		6	1.0	532	0	653.3240000000001	656.3330000000001	0.5	650.8240000000001
enc	enc68	old12	9	1.0	790	0	656.835	659.8439999999999	2.0	655.835
ctl	ctl36		6	1.0	767	0	661.8330000000001	664.842	4.5	663.3330000000001
ctl	ctl37		5	1.0	673	0	669.3389999999999	672.3480000000001	4.5	670.8389999999999
ctl	ctl38		6		0	1	676.845	679.8539999999999	3.5	677.345
enc	enc69	old31	5	1.0	604	0	683.347	686.3560000000001	1.5	681.847
enc	enc70	old49	9	1.0	582	0	687.8439999999999	690.8530000000001	4.5	689.3439999999999
enc	enc71	old28	8	1.0	669	0	695.35	698.3589999999999	0.5	692.85
enc	enc72	old26	6	1.0	547	0	698.86	701.8689999999999	0.5	696.36
enc	enc73	old76	9	1.0	621	0	702.3710000000001	705.38	5.0	704.3710000000001
ctl	ctl39		9	1.0	998	0	710.378	713.387	4.5	711.878
enc	enc74	old45	5	1.0	607	0	717.8839999999999	720.893	5.5	720.3839999999999
enc	enc75	old52	6	1.0	549	0	726.393	729.4019999999999	1.0	724.393
enc	enc76	old25	5	1.0	551	0	730.405	733.414	0.5	727.905
enc	enc77	old34	5	1.0	811	0	733.915	736.924	13.5	744.415
enc	enc78	old19	8	1.0	925	0				
