trial_type	trialcode	oldnumber	correctsource	stim_resp	stim_rt	stim_acc	onset	fix_onset	fix_duration	duration
ctl	ctl0		9		0	1	5.012	8.02	3.0	5.0120000000000005
enc	enc00		5	1.0	1804	0	11.013	14.022	2.0	10.013
enc	enc000		9	1.0	1683	0	16.011	19.02	1.0	14.011
ctl	ctl01		6	1.0	2084	0	20.023	23.031999999999996	8.0	25.023
enc	enc01	old53	8	1.0	1752	0	31.022	34.031	7.5	35.522
enc	enc02	old10	5	1.0	2009	0	41.52	44.528999999999996	0.5	39.02
enc	enc03	old62	5	1.0	1278	0	45.031000000000006	48.038999999999994	6.0	48.031000000000006
enc	enc04	old47	6		0	1	54.041000000000004	57.05	2.0	53.041000000000004
enc	enc05	old40	5	1.0	2181	0	59.038999999999994	62.048	2.0	58.038999999999994
enc	enc06	old78	9	1.0	2463	0	64.03699999999999	67.046	4.0	65.03699999999999
ctl	ctl02		5	1.0	1280	0	71.041	74.05	2.5	70.541
ctl	ctl03		6	1.0	676	0	76.541	79.55	1.5	75.041
ctl	ctl04		6	1.0	664	0	81.038	84.04700000000001	5.0	83.038
ctl	ctl05		9	1.0	703	0	89.045	92.054	1.0	87.045
enc	enc07	old57	6	1.0	2095	0	93.057	96.066	3.0	93.057
enc	enc08	old13	8	1.0	2283	0	99.05799999999999	102.06700000000001	3.0	99.05799999999999
ctl	ctl06		9	1.0	1186	0	105.059	108.068	2.5	104.559
enc	enc09	old46	9	1.0	1641	0	110.559	113.568	6.5	114.059
enc	enc10	old05	5	1.0	1781	0	120.07	123.079	2.5	119.57
enc	enc11	old39	9	1.0	1469	0	125.57	128.579	2.0	124.57
enc	enc12	old30	5	1.0	1553	0	130.56799999999998	133.577	4.5	132.06799999999998
enc	enc13	old71	8	1.0	771	0	138.07399999999998	141.083	4.5	139.57399999999998
enc	enc14	old66	8	1.0	1384	0	145.579	148.588	2.5	145.079
enc	enc15	old72	9	1.0	1071	0	151.079	154.088	1.0	149.079
enc	enc16	old69	8	1.0	1251	0	155.07399999999998	158.083	1.5	153.57399999999998
enc	enc17	old07	5	1.0	2224	0	159.571	162.58	4.0	160.571
ctl	ctl07		5	1.0	1199	0	166.575	169.584	3.0	166.575
ctl	ctl08		8	1.0	1090	0	172.576	175.585	1.0	170.576
enc	enc18	old31	8	1.0	1753	0	176.572	179.581	1.0	174.572
enc	enc19	old25	8	1.0	2245	0	180.584	183.592	0.5	178.084
enc	enc20	old21	5	1.0	1345	0	184.09400000000002	187.10299999999998	3.5	184.59400000000002
enc	enc21	old74	9	1.0	1931	0	190.597	193.606	4.5	192.097
enc	enc22	old17	9	1.0	1651	0	198.102	201.111	9.5	204.602
ctl	ctl09		8	1.0	826	0	210.606	213.615	3.5	211.106
enc	enc23	old12	6	1.0	1922	0	217.109	220.118	4.0	218.109
ctl	ctl10		9	1.0	1474	0	224.113	227.122	4.0	225.113
enc	enc24	old15	8	1.0	1126	0	231.11700000000002	234.12599999999998	1.0	229.11700000000002
enc	enc25	old42	8	1.0	1234	0	235.12900000000002	238.138	6.0	238.12900000000002
enc	enc26	old18	9	1.0	1662	0	244.139	247.148	6.5	247.639
enc	enc27	old49	5	1.0	1979	0	253.65099999999998	256.66	2.0	252.65099999999998
enc	enc28	old33	6	1.0	891	0	258.649	261.658	1.5	257.149
enc	enc29	old51	9	1.0	2477	0	263.14599999999996	266.155	2.5	262.64599999999996
enc	enc30	old45	8	1.0	2083	0	268.645	271.654	4.5	270.145
enc	enc31	old38	6	1.0	2400	0	276.151	279.16	0.5	273.651
enc	enc32	old01	6	1.0	1206	0	279.661	282.67	1.0	277.661
ctl	ctl11		6	1.0	1200	0	283.657	286.666	1.5	282.157
enc	enc33	old08	9	1.0	844	0	288.153	291.16200000000003	2.0	287.153
enc	enc34	old60	8	1.0	2355	0	293.152	296.161	4.0	294.152
ctl	ctl12		6	1.0	1028	0	300.156	303.165	2.0	299.156
enc	enc35	old02	9	1.0	1688	0	305.154	308.163	2.5	304.654
enc	enc36	old63	8		0	1	310.654	313.663	2.0	309.654
enc	enc37	old19	9	1.0	1150	0	315.652	318.661	14.5	327.152
enc	enc38	old70	6	1.0	1023	0	333.154	336.163	4.0	334.154
enc	enc39	old20	5	1.0	953	0	340.158	343.167	1.5	338.658
ctl	ctl13		5	1.0	868	0	344.655	347.664	1.0	342.655
enc	enc40	old24	6	1.0	1963	0	348.667	351.676	3.0	348.667
ctl	ctl14		9	1.0	823	0	354.668	357.67699999999996	5.5	357.168
ctl	ctl15		8	1.0	982	0	363.176	366.185	2.0	362.176
ctl	ctl16		9	1.0	705	0	368.175	371.184	2.5	367.675
enc	enc41	old50	6	1.0	1266	0	373.67400000000004	376.68300000000005	3.0	373.67400000000004
enc	enc42	old28	8		0	1	379.675	382.684	3.0	379.675
enc	enc43	old35	9	1.0	2846	0	385.67699999999996	388.686	2.0	384.67699999999996
enc	enc44	old75	5	1.0	1636	0	390.675	393.684	5.0	392.675
enc	enc45	old58	6	1.0	653	0	398.68199999999996	401.691	4.5	400.18199999999996
enc	enc46	old65	9	1.0	782	0	406.18800000000005	409.19699999999995	10.5	413.68800000000005
ctl	ctl17		8	1.0	676	0	419.694	422.70300000000003	2.5	419.194
enc	enc47	old76	6	1.0	713	0	425.194	428.20300000000003	2.5	424.694
enc	enc48	old37	9	1.0	1133	0	430.694	433.70300000000003	6.0	433.694
ctl	ctl18		5	1.0	1025	0	439.704	442.713	3.5	440.204
ctl	ctl19		5	1.0	782	0	446.207	449.216	1.5	444.707
enc	enc49	old23	6	1.0	2063	0	450.70300000000003	453.712	2.5	450.20300000000003
ctl	ctl20		8	1.0	1079	0	456.20300000000003	459.212	4.0	457.20300000000003
ctl	ctl21		9	1.0	867	0	463.207	466.216	2.0	462.207
enc	enc50	old11	8	1.0	1262	0	468.205	471.214	3.0	468.205
enc	enc51	old56	9	1.0	1896	0	474.207	477.215	3.0	474.207
ctl	ctl22		8	1.0	1166	0	480.208	483.217	4.0	481.208
enc	enc52	old43	8	1.0	1189	0	487.212	490.221	0.5	484.712
enc	enc53	old16	9	1.0	1120	0	490.722	493.731	8.0	495.722
ctl	ctl23		9	1.0	1066	0	501.722	504.731	3.0	501.722
ctl	ctl24		6	1.0	674	0	507.723	510.73199999999997	0.5	505.223
enc	enc54	old44	5	1.0	1145	0	511.233	514.242	1.5	509.73299999999995
enc	enc55	old36	8	1.0	1179	0	515.73	518.739	4.0	516.73
enc	enc56	old27	5	1.0	897	0	522.734	525.743	5.0	524.734
ctl	ctl25		6	1.0	733	0	530.741	533.75	7.5	535.241
enc	enc57	old77	6	1.0	782	0	541.239	544.248	1.0	539.239
ctl	ctl26		6	1.0	811	0	545.234	548.243	1.5	543.734
ctl	ctl27		9	1.0	928	0	549.731	552.74	0.5	547.231
enc	enc58	old14	5	1.0	1303	0	553.242	556.25	1.5	551.742
enc	enc59	old68	6	1.0	848	0	557.738	560.747	2.0	556.738
enc	enc60	old48	8	1.0	1184	0	562.736	565.745	1.0	560.736
ctl	ctl28		5	1.0	2049	0	566.732	569.741	5.0	568.732
ctl	ctl29		8	1.0	733	0	574.739	577.748	2.0	573.739
ctl	ctl30		9	1.0	670	0	579.737	582.746	5.5	582.237
ctl	ctl31		6	1.0	696	0	588.246	591.255	0.5	585.746
enc	enc61	old34	5	1.0	1082	0	591.756	594.765	8.0	596.756
ctl	ctl32		5	1.0	2564	0	602.755	605.764	1.0	600.755
enc	enc62	old54	5	1.0	837	0	606.751	609.76	0.5	604.251
ctl	ctl33		5	1.0	1833	0	610.261	613.27	3.5	610.761
enc	enc63	old04	5	1.0	979	0	616.764	619.773	1.5	615.264
enc	enc64	old03	9	1.0	1187	0	621.26	624.269	2.5	620.76
enc	enc65	old55	9	1.0	1387	0	626.76	629.769	9.5	633.26
enc	enc66	old73	5	1.0	831	0	639.264	642.273	0.5	636.764
enc	enc67	old59	8	1.0	1574	0	642.774	645.783	1.0	640.774
ctl	ctl34		8	1.0	1344	0	646.77	649.779	3.0	646.77
enc	enc68	old29	6	1.0	924	0	652.771	655.78	1.0	650.771
enc	enc69	old09	6	1.0	1299	0	656.783	659.7919999999999	2.0	655.783
ctl	ctl35		8	1.0	911	0	661.7810000000001	664.79	0.5	659.2810000000001
ctl	ctl36		6	1.0	936	0	665.291	668.3	2.0	664.291
enc	enc70	old61	5	1.0	1226	0	670.29	673.298	8.5	675.79
ctl	ctl37		5	1.0	787	0	681.79	684.799	1.5	680.29
enc	enc71	old41	6	1.0	703	0	686.2869999999999	689.296	1.0	684.2869999999999
enc	enc72	old06	8	1.0	1174	0	690.299	693.308	1.0	688.299
enc	enc73	old52	9	1.0	1625	0	694.311	697.32	4.0	695.311
enc	enc74	old22	8		0	1	701.315	704.324	9.5	707.815
enc	enc75	old67	9	1.0	785	0	713.819	716.828	4.5	715.319
ctl	ctl38		8	1.0	800	0	721.325	724.334	0.5	718.825
ctl	ctl39		9	1.0	654	0	724.835	727.8439999999999	4.0	725.835
enc	enc76	old64	6	1.0	1424	0	731.8389999999999	734.8480000000001	1.0	729.8389999999999
enc	enc77	old32	5	1.0	740	0	735.834	738.8430000000001	11.5	744.334
enc	enc78	old26	6	1.0	793	0				
