trial_type	trialcode	oldnumber	correctsource	stim_resp	stim_rt	stim_acc	onset	fix_onset	fix_duration	duration
enc	enc00		5	1	1092	0	10.045	13.044	4.5	11.545
enc	enc000		9	1	1474	0	17.544	20.544	4.5	19.044
ctl	ctl0		9	1	1060	0	25.043000000000003	28.043000000000003	0.5	22.543000000000003
enc	enc01	old53	8	1	1310	0	28.543000000000003	31.543000000000003	0.5	26.043000000000003
ctl	ctl01		6	1	1230	0	32.043	35.043	4.5	33.543
enc	enc02	old02	5	3	459	0	39.542	42.542	2.0	38.542
enc	enc03	old62	5	3	460	0	44.542	47.542	3.5	45.042
ctl	ctl02		5	3	459	0	51.041000000000004	54.041000000000004	1.5	49.541000000000004
ctl	ctl03		6	1	884	0	55.541000000000004	58.541000000000004	2.5	55.041000000000004
enc	enc04	old69	6	1	1169	0	61.041000000000004	64.04	1.0	59.041000000000004
enc	enc05	old72	5	1	1168	0	65.04	68.04	3.0	65.04
ctl	ctl04		6	1	939	0	71.04	74.04	4.0	72.04
enc	enc06	old45	9	1	1095	0	78.039	81.039	0.5	75.539
ctl	ctl05		9	1	976	0	81.539	84.539	2.5	81.039
enc	enc07	old60	6	3	961	0	87.039	90.039	2.5	86.539
ctl	ctl06		9	3	461	0	92.538	95.538	3.5	93.038
ctl	ctl07		5	1	888	0	99.038	102.038	1.0	97.038
enc	enc08	old07	8	3	962	0	103.038	106.037	2.0	102.038
enc	enc09	old74	9	1	1463	0	108.037	111.037	0.5	105.537
enc	enc10	old08	5	1	1053	0	111.537	114.537	4.5	113.037
enc	enc11	old39	9	3	963	0	119.036	122.036	7.0	123.036
enc	enc12	old28	5	3	963	0	129.036	132.035	0.5	126.536
enc	enc13	old43	8	3	962	0	132.535	135.535	2.0	131.535
enc	enc14	old40	8	1	1795	0	137.535	140.535	1.0	135.535
enc	enc15	old50	9	1	1801	0	141.535	144.534	1.0	139.535
enc	enc16	old52	8	3	963	0	145.534	148.534	3.5	146.034
enc	enc17	old09	5	1	1364	0	152.034	155.034	1.0	150.034
ctl	ctl08		8	3	464	0	156.034	159.033	2.0	155.034
enc	enc18	old29	8	1	1461	0	161.033	164.033	0.5	158.533
enc	enc19	old16	8	3	1465	0	164.533	167.533	3.5	165.033
enc	enc20	old14	5	3	465	0	171.032	174.032	7.0	175.032
ctl	ctl09		8	1	739	0	181.032	184.03099999999998	2.5	180.532
enc	enc21	old47	9	1	1395	0	186.53099999999998	189.53099999999998	5.0	188.53099999999998
enc	enc22	old20	9	3	967	0	194.53099999999998	197.53	1.0	192.53099999999998
enc	enc23	old01	6	3	467	0	198.53	201.53	10.0	205.53
enc	enc24	old18	8	1	1351	0	211.52900000000002	214.52900000000002	1.5	210.02900000000002
enc	enc25	old67	8	3	967	0	216.02900000000002	219.02900000000002	0.5	213.52900000000002
enc	enc26	old24	9	3	1467	0	219.52900000000002	222.52900000000002	2.5	219.02900000000002
enc	enc27	old78	5	3	467	0	225.028	228.028	3.5	225.528
enc	enc28	old38	6	1	1775	0	231.528	234.528	1.0	229.528
ctl	ctl10		9	1	726	0	235.528	238.52700000000002	0.5	233.028
ctl	ctl11		6	1	838	0	239.02700000000002	242.02700000000002	1.5	237.52700000000002
ctl	ctl12		6	1	836	0	243.52700000000002	246.52700000000002	7.0	247.52700000000002
ctl	ctl13		5	1	719	0	253.52599999999998	256.526	7.0	257.52599999999995
enc	enc29	old66	9	3	1470	0	263.525	266.525	2.0	262.525
enc	enc30	old73	8	1	1178	0	268.525	271.525	6.5	272.025
ctl	ctl14		9	1	895	0	278.024	281.024	3.5	278.524
enc	enc31	old35	6	1	1276	0	284.524	287.524	2.5	284.024
enc	enc32	old05	6	3	471	0	290.024	293.02299999999997	4.0	291.024
enc	enc33	old11	9	1	2222	0	297.02299999999997	300.02299999999997	3.5	297.52299999999997
enc	enc34	old54	8	3	472	0	303.522	306.522	1.0	301.522
ctl	ctl15		8	1	756	0	307.522	310.522	6.5	311.022
enc	enc35	old10	9	1	1794	0	317.022	320.02099999999996	7.5	321.522
ctl	ctl16		9	3	472	0	327.52099999999996	330.52	2.5	327.02099999999996
ctl	ctl17		8	1	846	0	333.02	336.02	1.5	331.52
enc	enc36	old65	8	1	1193	0	337.52	340.52	1.0	335.52
enc	enc37	old19	9	1	1538	0	341.52	344.519	3.0	341.52
enc	enc38	old51	6	3	974	0	347.519	350.519	2.5	347.019
ctl	ctl18		5	1	806	0	353.019	356.019	1.0	351.019
enc	enc39	old22	5	1	1348	0	357.01800000000003	360.01800000000003	9.0	363.01800000000003
enc	enc40	old21	6	3	476	0	369.01800000000003	372.017	1.5	367.51800000000003
enc	enc41	old76	6	3	975	0	373.517	376.517	8.5	379.017
enc	enc42	old37	8	3	1476	0	385.01599999999996	388.01599999999996	8.0	390.01599999999996
enc	enc43	old31	9	1	1452	0	396.01599999999996	399.015	1.5	394.51599999999996
ctl	ctl19		5	1	786	0	400.515	403.515	5.0	402.515
enc	enc44	old44	5	1	1842	0	408.515	411.514	1.0	406.515
ctl	ctl20		8	1	820	0	412.514	415.514	3.0	412.514
ctl	ctl21		9	1	638	0	418.514	421.514	5.0	420.514
enc	enc45	old57	6	1	1058	0	426.51300000000003	429.51300000000003	0.5	424.01300000000003
ctl	ctl22		8	1	761	0	430.01300000000003	433.01300000000003	1.5	428.51300000000003
enc	enc46	old59	9	1	1501	0	434.51300000000003	437.51199999999994	0.5	432.01300000000003
enc	enc47	old46	6	3	479	0	438.01199999999994	441.01199999999994	2.0	437.01199999999994
enc	enc48	old27	9	1	1709	0	443.01199999999994	446.01199999999994	1.5	441.51199999999994
enc	enc49	old15	6	1	1540	0	447.51199999999994	450.51099999999997	1.0	445.51199999999994
enc	enc50	old06	8	1	1346	0	451.51099999999997	454.51099999999997	2.5	451.01099999999997
enc	enc51	old63	9	3	980	0	457.01099999999997	460.01099999999997	5.5	459.51099999999997
enc	enc52	old68	8	3	480	0	465.51	468.51	2.5	465.01
ctl	ctl23		9	1	679	0	471.01	474.01	1.5	469.51
enc	enc53	old25	9	3	1480	0	475.51	478.509	0.5	473.01
ctl	ctl24		6	1	930	0	479.009	482.009	3.0	479.009
enc	enc54	old71	5	3	981	0	485.009	488.009	3.5	485.509
enc	enc55	old32	8	1	1576	0	491.50800000000004	494.50800000000004	7.5	496.00800000000004
enc	enc56	old33	5	3	982	0	502.00800000000004	505.00699999999995	2.5	501.50800000000004
enc	enc57	old49	6	3	482	0	507.50699999999995	510.50699999999995	0.5	505.00699999999995
ctl	ctl25		6	1	829	0	511.00699999999995	514.007	1.0	509.00699999999995
enc	enc58	old23	5	3	1483	0	515.007	518.006	4.0	516.007
enc	enc59	old41	6	1	1977	0	522.006	525.006	11.5	530.506
enc	enc60	old77	8	3	483	0	536.505	539.505	0.5	534.005
ctl	ctl26		6	1	602	0	540.005	543.005	4.0	541.005
ctl	ctl27		9	1	776	0	547.004	550.004	0.5	544.504
ctl	ctl28		5	3	485	0	550.504	553.504	2.5	550.004
enc	enc61	old30	5	1	1541	0	556.004	559.003	3.0	556.004
enc	enc62	old55	5	1	1378	0	562.003	565.003	1.0	560.003
ctl	ctl29		8	3	485	0	566.003	569.003	2.0	565.003
enc	enc63	old03	5	1	1253	0	571.002	574.002	0.5	568.502
enc	enc64	old13	9	3	1486	0	574.502	577.502	7.0	578.502
ctl	ctl30		9	3	486	0	584.501	587.501	0.5	582.001
enc	enc65	old58	9	3	487	0	588.001	591.001	0.5	585.501
enc	enc66	old42	5	1	1524	0	591.501	594.501	0.5	589.001
ctl	ctl31		6	1	876	0	595.001	598.0	1.5	593.501
ctl	ctl32		5	2	2	0	599.5	602.5	3.0	599.5
enc	enc67	old61	8	3	487	0	605.5	608.5	1.5	604.0
enc	enc68	old36	6	1	1612	0	610.0	612.999	4.5	611.5
ctl	ctl33		5	1	814	0	617.499	620.499	0.5	614.999
ctl	ctl34		8	1	648	0	620.999	623.998	8.0	625.999
enc	enc69	old12	6	1	1391	0	631.998	634.998	1.0	629.998
enc	enc70	old64	5	3	488	0	635.998	638.997	4.5	637.498
ctl	ctl35		8	1	1072	0	643.497	646.497	2.0	642.497
ctl	ctl36		6	1	681	0	648.497	651.496	1.0	646.497
enc	enc71	old70	6	4	1489	0	652.496	655.4960000000001	2.0	651.496
enc	enc72	old04	8	1	1495	0	657.4960000000001	660.4960000000001	2.0	656.4960000000001
ctl	ctl37		5	1	2	0	662.4960000000001	665.495	10.0	669.4960000000001
ctl	ctl38		8	1	675	0	675.495	678.4939999999999	3.5	675.995
enc	enc73	old75	9	1	1334	0	681.9939999999999	684.9939999999999	9.0	687.9939999999999
enc	enc74	old17	8	4	491	0	693.993	696.993	0.5	691.493
ctl	ctl39		9	1	672	0	697.493	700.493	7.0	701.493
enc	enc75	old48	9	1	1538	0	707.492	710.492	12.5	716.992
enc	enc76	old56	6	2	2	0	722.9910000000001	725.9910000000001	2.5	722.4910000000001
enc	enc77	old34	5	1	1825	0	728.4910000000001	731.49	18.5	743.9910000000001
enc	enc78	old26	6	1	1266	0				
