trial_type	trialcode	oldnumber	correctsource	stim_resp	stim_rt	stim_acc	onset	fix_onset	fix_duration	duration
ctl	ctl0		9	1.0	739	0	5.011	8.02	3.0	5.010999999999999
enc	enc00		5	1.0	629	0	11.012	14.020999999999999	2.0	10.012
enc	enc000		9	1.0	620	0	16.011	19.02	1.0	14.011
ctl	ctl01		6	1.0	781	0	20.023	23.031999999999996	8.0	25.023
enc	enc01	old64	8	1.0	553	0	31.022	34.031	7.5	35.522
enc	enc02	old12	5	1.0	834	0	41.52	44.528999999999996	0.5	39.02
enc	enc03	old57	5	1.0	679	0	45.031000000000006	48.04	6.0	48.031000000000006
enc	enc04	old41	6	1.0	832	0	54.041000000000004	57.05	2.0	53.041000000000004
enc	enc05	old48	5	1.0	918	0	59.038999999999994	62.048	2.0	58.038999999999994
enc	enc06	old71	9	1.0	712	0	64.038	67.047	4.0	65.038
ctl	ctl02		5	1.0	721	0	71.042	74.051	2.5	70.542
ctl	ctl03		6	1.0	1021	0	76.542	79.551	1.5	75.042
ctl	ctl04		6	1.0	617	0	81.039	84.04799999999999	5.0	83.039
ctl	ctl05		9	1.0	719	0	89.046	92.055	1.0	87.046
enc	enc07	old63	6	1.0	744	0	93.05799999999999	96.06700000000001	3.0	93.05799999999999
enc	enc08	old02	8	1.0	908	0	99.059	102.068	3.0	99.059
ctl	ctl06		9	1.0	643	0	105.06	108.069	2.5	104.56
enc	enc09	old47	9	1.0	1042	0	110.56	113.569	6.5	114.06
enc	enc10	old09	5	1.0	1150	0	120.072	123.081	2.5	119.572
enc	enc11	old27	9	1.0	662	0	125.572	128.58100000000002	2.0	124.572
enc	enc12	old39	5	1.0	1185	0	130.57	133.579	4.5	132.07
enc	enc13	old76	8	1.0	907	0	138.076	141.085	4.5	139.576
enc	enc14	old77	8	1.0	1057	0	145.582	148.591	2.5	145.082
enc	enc15	old70	9	1.0	863	0	151.08100000000002	154.09	1.0	149.08100000000002
enc	enc16	old72	8	1.0	1588	0	155.077	158.086	1.5	153.577
enc	enc17	old05	5	1.0	968	0	159.57399999999998	162.583	4.0	160.57399999999998
ctl	ctl07		5	1.0	839	0	166.578	169.58700000000002	3.0	166.578
ctl	ctl08		8	1.0	699	0	172.579	175.588	1.0	170.579
enc	enc18	old38	8	1.0	889	0	176.574	179.583	1.0	174.574
enc	enc19	old19	8	1.0	966	0	180.57	183.579	0.5	178.07
enc	enc20	old16	5	1.0	1274	0	184.08	187.08900000000003	3.5	184.58
enc	enc21	old74	9	1.0	1660	0	190.583	193.592	4.5	192.083
enc	enc22	old14	9	1.0	1141	0	198.08900000000003	201.09799999999998	9.5	204.58900000000003
ctl	ctl09		8	1.0	803	0	210.593	213.602	3.5	211.093
enc	enc23	old07	6	1.0	939	0	217.09599999999998	220.105	4.0	218.09599999999998
ctl	ctl10		9	1.0	707	0	224.1	227.109	4.0	225.1
enc	enc24	old21	8	1.0	1263	0	231.104	234.113	1.0	229.104
enc	enc25	old44	8	1.0	923	0	235.09900000000002	238.108	6.0	238.09900000000002
enc	enc26	old24	9	1.0	1016	0	244.11	247.11900000000003	6.5	247.61
enc	enc27	old51	5	1.0	1277	0	253.62099999999998	256.63	2.0	252.62099999999998
enc	enc28	old36	6	1.0	1022	0	258.62	261.629	1.5	257.12
enc	enc29	old45	9	1.0	1031	0	263.117	266.126	2.5	262.617
enc	enc30	old52	8	1.0	789	0	268.616	271.625	4.5	270.116
enc	enc31	old31	6	1.0	730	0	276.122	279.131	0.5	273.622
enc	enc32	old01	6	1.0	928	0	279.633	282.642	1.0	277.633
ctl	ctl11		6	1.0	833	0	283.645	286.654	1.5	282.145
enc	enc33	old04	9	1.0	973	0	288.14099999999996	291.15	2.0	287.14099999999996
enc	enc34	old54	8	1.0	885	0	293.14	296.149	4.0	294.14
ctl	ctl12		6	1.0	718	0	300.144	303.153	2.0	299.144
enc	enc35	old11	9	1.0	890	0	305.142	308.151	2.5	304.642
enc	enc36	old65	8	1.0	1555	0	310.642	313.651	2.0	309.642
enc	enc37	old17	9	1.0	1767	0	315.64	318.649	14.5	327.14
enc	enc38	old73	6	1.0	1873	0	333.14300000000003	336.152	4.0	334.14300000000003
enc	enc39	old15	5	1.0	1882	0	340.147	343.156	1.5	338.647
ctl	ctl13		5	1.0	1046	0	344.644	347.653	1.0	342.644
enc	enc40	old23	6	1.0	1837	0	348.656	351.665	3.0	348.656
ctl	ctl14		9	1.0	705	0	354.657	357.666	5.5	357.157
ctl	ctl15		8	1.0	719	0	363.166	366.175	2.0	362.166
ctl	ctl16		9	1.0	674	0	368.164	371.173	2.5	367.664
enc	enc41	old43	6	1.0	1764	0	373.664	376.673	3.0	373.664
enc	enc42	old30	8	1.0	2384	0	379.665	382.67400000000004	3.0	379.665
enc	enc43	old37	9	1.0	1575	0	385.666	388.675	2.0	384.666
enc	enc44	old78	5	1.0	1542	0	390.665	393.67400000000004	5.0	392.665
enc	enc45	old53	6	1.0	1359	0	398.67199999999997	401.681	4.5	400.17199999999997
enc	enc46	old62	9	1.0	1495	0	406.17800000000005	409.18699999999995	10.5	413.67800000000005
ctl	ctl17		8	1.0	829	0	419.685	422.694	2.5	419.185
enc	enc47	old67	6	1.0	978	0	425.185	428.194	2.5	424.685
enc	enc48	old29	9	1.0	902	0	430.684	433.69300000000004	6.0	433.684
ctl	ctl18		5	1.0	811	0	439.695	442.704	3.5	440.195
ctl	ctl19		5	1.0	848	0	446.19800000000004	449.207	1.5	444.69800000000004
enc	enc49	old20	6	1.0	1072	0	450.694	453.70300000000003	2.5	450.194
ctl	ctl20		8	1.0	1712	0	456.194	459.20300000000003	4.0	457.194
ctl	ctl21		9	1.0	2300	0	463.19800000000004	466.207	2.0	462.19800000000004
enc	enc50	old13	8	1.0	1144	0	468.19699999999995	471.20599999999996	3.0	468.19699999999995
enc	enc51	old58	9	1.0	1529	0	474.19800000000004	477.207	3.0	474.19800000000004
ctl	ctl22		8	1.0	664	0	480.199	483.208	4.0	481.199
enc	enc52	old46	8	1.0	1679	0	487.204	490.213	0.5	484.704
enc	enc53	old25	9	1.0	1210	0	490.714	493.723	8.0	495.714
ctl	ctl23		9	1.0	1083	0	501.714	504.723	3.0	501.714
ctl	ctl24		6	1.0	1283	0	507.715	510.724	0.5	505.215
enc	enc54	old40	5	1.0	1546	0	511.225	514.234	1.5	509.725
enc	enc55	old35	8	1.0	1636	0	515.722	518.731	4.0	516.722
enc	enc56	old33	5	1.0	1411	0	522.726	525.735	5.0	524.726
ctl	ctl25		6	1.0	631	0	530.734	533.743	7.5	535.234
enc	enc57	old66	6	1.0	551	0	541.232	544.241	1.0	539.232
ctl	ctl26		6	1.0	812	0	545.244	548.253	1.5	543.744
ctl	ctl27		9	1.0	792	0	549.741	552.75	0.5	547.241
enc	enc58	old22	5	1.0	639	0	553.251	556.26	1.5	551.751
enc	enc59	old75	6	1.0	1065	0	557.748	560.757	2.0	556.748
enc	enc60	old49	8	1.0	2016	0	562.746	565.755	1.0	560.746
ctl	ctl28		5		0	1	566.741	569.75	5.0	568.741
ctl	ctl29		8		0	1	574.749	577.758	2.0	573.749
ctl	ctl30		9		0	1	579.747	582.756	5.5	582.247
ctl	ctl31		6		0	1	588.256	591.265	0.5	585.756
enc	enc61	old28	5	1.0	2123	0	591.766	594.775	8.0	596.766
ctl	ctl32		5	1.0	653	0	602.766	605.775	1.0	600.766
enc	enc62	old55	5	1.0	549	0	606.778	609.7869999999999	0.5	604.278
ctl	ctl33		5	1.0	505	0	610.288	613.297	3.5	610.788
enc	enc63	old10	5	1.0	483	0	616.7909999999999	619.8	1.5	615.2909999999999
enc	enc64	old08	9	1.0	532	0	621.288	624.297	2.5	620.788
enc	enc65	old59	9	1.0	611	0	626.788	629.797	9.5	633.288
enc	enc66	old68	5	1.0	502	0	639.2919999999999	642.3009999999999	0.5	636.7919999999999
enc	enc67	old56	8	1.0	886	0	642.802	645.811	1.0	640.802
ctl	ctl34		8	1.0	664	0	646.798	649.807	3.0	646.798
enc	enc68	old32	6	1.0	892	0	652.799	655.808	1.0	650.799
enc	enc69	old06	6	1.0	475	0	656.811	659.82	2.0	655.811
ctl	ctl35		8	1.0	527	0	661.809	664.818	0.5	659.309
ctl	ctl36		6	1.0	585	0	665.32	668.329	2.0	664.32
enc	enc70	old60	5	1.0	738	0	670.318	673.327	8.5	675.818
ctl	ctl37		5	1.0	579	0	681.819	684.828	1.5	680.319
enc	enc71	old50	6	1.0	582	0	686.316	689.325	1.0	684.316
enc	enc72	old03	8	1.0	869	0	690.328	693.337	1.0	688.328
enc	enc73	old42	9	1.0	953	0	694.34	697.3489999999999	4.0	695.34
enc	enc74	old26	8	1.0	1085	0	701.3439999999999	704.3530000000001	9.5	707.8439999999999
enc	enc75	old69	9	1.0	961	0	713.8480000000001	716.857	4.5	715.3480000000001
ctl	ctl38		8	1.0	577	0	721.3539999999999	724.363	0.5	718.8539999999999
ctl	ctl39		9	1.0	662	0	724.8639999999999	727.873	4.0	725.8639999999999
enc	enc76	old61	6	1.0	568	0	731.8689999999999	734.878	1.0	729.8689999999999
enc	enc77	old34	5	1.0	739	0	735.8810000000001	738.89	11.5	744.3810000000001
enc	enc78	old18	6	1.0	759	0				
