trial_type	trialcode	oldnumber	correctsource	stim_resp	stim_rt	stim_acc	onset	fix_onset	fix_duration	duration
enc	enc00		5		0	1	10.016	13.025	4.5	11.516
enc	enc000		9	1.0	999	0	17.521	20.53	4.5	19.021
ctl	ctl0		9	1.0	2166	0	25.026999999999997	28.035999999999998	0.5	22.526999999999997
enc	enc01	old56	8	1.0	1756	0	28.537	31.546	0.5	26.037
ctl	ctl01		6	1.0	1758	0	32.048	35.056999999999995	4.5	33.548
enc	enc02	old06	5	1.0	1630	0	39.553000000000004	42.562	2.0	38.553000000000004
enc	enc03	old64	5	1.0	1597	0	44.552	47.56100000000001	3.5	45.052
ctl	ctl02		5	1.0	910	0	51.053999999999995	54.063	1.5	49.553999999999995
ctl	ctl03		6	1.0	928	0	55.551	58.56	2.5	55.051
enc	enc04	old68	6	1.0	1359	0	61.051	64.06	1.0	59.051
enc	enc05	old76	5	1.0	1826	0	65.063	68.072	3.0	65.063
ctl	ctl04		6	1.0	1326	0	71.064	74.07300000000001	4.0	72.064
enc	enc06	old51	9	1.0	1309	0	78.068	81.077	0.5	75.568
ctl	ctl05		9	1.0	929	0	81.579	84.587	2.5	81.079
enc	enc07	old58	6	1.0	1282	0	87.07799999999999	90.087	2.5	86.57799999999999
ctl	ctl06		9	1.0	758	0	92.57799999999999	95.587	3.5	93.07799999999999
ctl	ctl07		5	1.0	690	0	99.081	102.09	1.0	97.081
enc	enc08	old10	8	1.0	1307	0	103.09299999999999	106.101	2.0	102.09299999999999
enc	enc09	old73	9	1.0	1159	0	108.09100000000001	111.1	0.5	105.59100000000001
enc	enc10	old02	5	1.0	1209	0	111.601	114.61	4.5	113.101
enc	enc11	old28	9	1.0	1082	0	119.10700000000001	122.116	7.0	123.10700000000001
enc	enc12	old36	5	1.0	1160	0	129.10299999999998	132.112	0.5	126.60299999999998
enc	enc13	old45	8	1.0	1092	0	132.614	135.623	2.0	131.614
enc	enc14	old46	8	1.0	1317	0	137.612	140.621	1.0	135.612
enc	enc15	old44	9	1.0	1439	0	141.624	144.63299999999998	1.0	139.624
enc	enc16	old40	8	1.0	1290	0	145.636	148.645	3.5	146.136
enc	enc17	old13	5	1.0	958	0	152.139	155.14700000000002	1.0	150.139
ctl	ctl08		8	1.0	1031	0	156.15	159.159	2.0	155.15
enc	enc18	old27	8	1.0	868	0	161.149	164.158	0.5	158.649
enc	enc19	old17	8	1.0	981	0	164.65900000000002	167.668	3.5	165.15900000000002
enc	enc20	old23	5	1.0	1335	0	171.162	174.171	7.0	175.162
ctl	ctl09		8	1.0	671	0	181.158	184.167	2.5	180.658
enc	enc21	old48	9	1.0	939	0	186.658	189.667	5.0	188.658
enc	enc22	old18	9	1.0	1047	0	194.665	197.674	1.0	192.665
enc	enc23	old04	6	1.0	951	0	198.67700000000002	201.68599999999998	10.0	205.67700000000002
enc	enc24	old15	8	1.0	915	0	211.68200000000002	214.69099999999997	1.5	210.18200000000002
enc	enc25	old71	8	1.0	1094	0	216.179	219.188	0.5	213.679
enc	enc26	old22	9	1.0	853	0	219.69	222.69799999999998	2.5	219.19
enc	enc27	old70	5	1.0	1157	0	225.18900000000002	228.19799999999998	3.5	225.68900000000002
enc	enc28	old39	6	1.0	1058	0	231.692	234.701	1.0	229.692
ctl	ctl10		9	1.0	747	0	235.704	238.713	0.5	233.204
ctl	ctl11		6	1.0	743	0	239.21400000000003	242.22299999999998	1.5	237.71400000000003
ctl	ctl12		6	1.0	625	0	243.71099999999998	246.72	7.0	247.71099999999998
ctl	ctl13		5	1.0	520	0	253.707	256.716	7.0	257.707
enc	enc29	old67	9	1.0	1107	0	263.704	266.71299999999997	2.0	262.704
enc	enc30	old69	8	1.0	1158	0	268.702	271.711	6.5	272.202
ctl	ctl14		9	1.0	728	0	278.214	281.223	3.5	278.714
enc	enc31	old37	6	1.0	855	0	284.716	287.725	2.5	284.216
enc	enc32	old08	6	1.0	849	0	290.216	293.225	4.0	291.216
enc	enc33	old07	9	1.0	1261	0	297.22	300.22900000000004	3.5	297.72
enc	enc34	old57	8	1.0	1305	0	303.723	306.732	1.0	301.723
ctl	ctl15		8	1.0	665	0	307.735	310.744	6.5	311.235
enc	enc35	old03	9	1.0	1317	0	317.247	320.255	7.5	321.747
ctl	ctl16		9	1.0	717	0	327.744	330.75300000000004	2.5	327.244
ctl	ctl17		8	1.0	619	0	333.244	336.25300000000004	1.5	331.744
enc	enc36	old59	8	1.0	1199	0	337.741	340.75	1.0	335.741
enc	enc37	old20	9	1.0	886	0	341.75300000000004	344.76199999999994	3.0	341.75300000000004
enc	enc38	old52	6	1.0	1346	0	347.754	350.76300000000003	2.5	347.254
ctl	ctl18		5	1.0	929	0	353.254	356.26300000000003	1.0	351.254
enc	enc39	old16	5	1.0	1037	0	357.26599999999996	360.275	9.0	363.26599999999996
enc	enc40	old19	6	1.0	808	0	369.26800000000003	372.277	1.5	367.76800000000003
enc	enc41	old66	6	1.0	582	0	373.765	376.774	8.5	379.265
enc	enc42	old38	8	1.0	845	0	385.26599999999996	388.275	8.0	390.26599999999996
enc	enc43	old34	9	1.0	807	0	396.265	399.274	1.5	394.765
ctl	ctl19		5	1.0	704	0	400.76199999999994	403.77099999999996	5.0	402.76199999999994
enc	enc44	old41	5	1.0	919	0	408.769	411.778	1.0	406.769
ctl	ctl20		8	1.0	607	0	412.781	415.79	3.0	412.781
ctl	ctl21		9	1.0	627	0	418.782	421.791	5.0	420.782
enc	enc45	old61	6	1.0	602	0	426.789	429.798	0.5	424.289
ctl	ctl22		8	1.0	891	0	430.3	433.309	1.5	428.8
enc	enc46	old63	9	1.0	1220	0	434.796	437.805	0.5	432.296
enc	enc47	old50	6	1.0	963	0	438.30699999999996	441.316	2.0	437.30699999999996
enc	enc48	old32	9	1.0	1020	0	443.305	446.314	1.5	441.805
enc	enc49	old26	6	1.0	870	0	447.80199999999996	450.811	1.0	445.80199999999996
enc	enc50	old11	8	1.0	789	0	451.814	454.82300000000004	2.5	451.314
enc	enc51	old54	9	1.0	881	0	457.31300000000005	460.32199999999995	5.5	459.81300000000005
enc	enc52	old78	8	1.0	998	0	465.82199999999995	468.83099999999996	2.5	465.32199999999995
ctl	ctl23		9	1.0	784	0	471.32199999999995	474.33099999999996	1.5	469.82199999999995
enc	enc53	old14	9	1.0	588	0	475.81800000000004	478.827	0.5	473.31800000000004
ctl	ctl24		6	1.0	700	0	479.329	482.338	3.0	479.329
enc	enc54	old72	5	1.0	1221	0	485.33	488.339	3.5	485.83
enc	enc55	old35	8	1.0	1356	0	491.833	494.842	7.5	496.333
enc	enc56	old33	5	1.0	764	0	502.33099999999996	505.34	2.5	501.83099999999996
enc	enc57	old49	6	1.0	1194	0	507.83	510.839	0.5	505.33
ctl	ctl25		6	1.0	791	0	511.341	514.35	1.0	509.341
enc	enc58	old25	5	1.0	1128	0	515.3530000000001	518.362	4.0	516.3530000000001
enc	enc59	old43	6	1.0	1027	0	522.357	525.366	11.5	530.857
enc	enc60	old75	8	1.0	1479	0	536.867	539.876	0.5	534.367
ctl	ctl26		6	1.0	577	0	540.377	543.386	4.0	541.377
ctl	ctl27		9	1.0	611	0	547.381	550.39	0.5	544.881
ctl	ctl28		5	1.0	606	0	550.8919999999999	553.901	2.5	550.3919999999999
enc	enc61	old31	5	1.0	591	0	556.3919999999999	559.401	3.0	556.3919999999999
enc	enc62	old65	5	1.0	643	0	562.393	565.4019999999999	1.0	560.393
ctl	ctl29		8	1.0	842	0	566.405	569.414	2.0	565.405
enc	enc63	old09	5	1.0	1438	0	571.403	574.4119999999999	0.5	568.903
enc	enc64	old12	9	1.0	1287	0	574.913	577.922	7.0	578.913
ctl	ctl30		9	1.0	1385	0	584.91	587.919	0.5	582.41
enc	enc65	old62	9	1.0	1524	0	588.42	591.429	0.5	585.92
enc	enc66	old47	5	1.0	942	0	591.931	594.94	0.5	589.431
ctl	ctl31		6	1.0	895	0	595.441	598.45	1.5	593.941
ctl	ctl32		5	1.0	577	0	599.938	602.947	3.0	599.938
enc	enc67	old60	8	1.0	1135	0	605.939	608.948	1.5	604.439
enc	enc68	old30	6	1.0	630	0	610.436	613.445	4.5	611.936
ctl	ctl33		5	1.0	533	0	617.941	620.95	0.5	615.441
ctl	ctl34		8	1.0	516	0	621.452	624.461	8.0	626.452
enc	enc69	old01	6	1.0	933	0	632.451	635.46	1.0	630.451
enc	enc70	old55	5	1.0	829	0	636.446	639.455	4.5	637.946
ctl	ctl35		8	1.0	978	0	643.952	646.961	2.0	642.952
ctl	ctl36		6	1.0	480	0	648.95	651.9590000000001	1.0	646.95
enc	enc71	old77	6	1.0	474	0	652.946	655.955	2.0	651.946
enc	enc72	old05	8	1.0	621	0	657.944	660.953	2.0	656.944
ctl	ctl37		5	1.0	863	0	662.942	665.951	10.0	669.942
ctl	ctl38		8	1.0	833	0	675.947	678.956	3.5	676.447
enc	enc73	old74	9	1.0	644	0	682.45	685.459	9.0	688.45
enc	enc74	old24	8	1.0	732	0	694.452	697.461	0.5	691.952
ctl	ctl39		9	1.0	866	0	697.9630000000001	700.972	7.0	701.9630000000001
enc	enc75	old42	9	1.0	891	0	707.959	710.9680000000001	12.5	717.459
enc	enc76	old53	6	1.0	822	0	723.455	726.4639999999999	2.5	722.955
enc	enc77	old29	5	1.0	934	0	728.955	731.9639999999999	18.5	744.455
enc	enc78	old21	6	1.0	1130	0				
