trial_type	trialcode	oldnumber	correctsource	stim_resp	stim_rt	stim_acc	onset	fix_onset	fix_duration	duration
enc	enc00		8		0	1	7.537999999999999	10.538	0.5	5.038
enc	enc000		9		0	1	11.038	14.038	0.5	8.538
ctl	ctl0		8		0	1	14.538	17.537	6.5	18.038
enc	enc01	old58	6		0	1	24.037	27.035999999999998	2.0	23.037
enc	enc02	old03	5		0	1	29.035999999999998	32.036	1.5	27.535999999999998
enc	enc03	old16	6		0	1	33.536	36.536	1.0	31.536
enc	enc04	old78	9		0	1	37.536	40.535	8.5	43.036
enc	enc05	old63	8		0	1	49.035	52.034	2.0	48.035
enc	enc06	old46	9		0	1	54.034	57.034	2.5	53.534
enc	enc07	old32	8		0	1	59.534	62.533	1.5	58.034
ctl	ctl01		8		0	1	64.033	67.033	1.5	62.533
ctl	ctl02		5		0	1	68.533	71.533	0.5	66.033
enc	enc08	old42	6		0	1	72.032	75.032	0.5	69.532
ctl	ctl03		6		0	1	75.532	78.532	2.0	74.532
enc	enc09	old14	5		0	1	80.532	83.531	1.5	79.032
enc	enc10	old36	6		0	1	85.031	88.031	2.0	84.031
ctl	ctl04		8		0	1	90.031	93.031	7.5	94.531
enc	enc11	old05	6		0	1	100.53	103.53	5.0	102.53
enc	enc12	old25	8		0	1	108.529	111.529	1.5	107.029
enc	enc13	old72	5		0	1	113.029	116.02799999999999	3.0	113.029
enc	enc14	old15	9		0	1	119.02799999999999	122.02799999999999	1.0	117.02799999999999
enc	enc15	old38	9		0	1	123.02799999999999	126.02799999999999	1.5	121.52799999999999
enc	enc16	old34	5		0	1	127.527	130.52700000000002	8.5	133.027
enc	enc17	old18	5		0	1	139.026	142.026	2.0	138.026
enc	enc18	old12	5		0	1	144.026	147.026	1.0	142.026
ctl	ctl05		8		0	1	148.026	151.025	1.5	146.526
ctl	ctl06		5		0	1	152.525	155.525	6.5	156.025
enc	enc19	old48	8		0	1	162.024	165.024	1.5	160.524
enc	enc20	old67	6		0	1	166.524	169.524	6.5	170.024
enc	enc21	old60	5		0	1	176.023	179.023	3.5	176.523
ctl	ctl07		5		0	1	182.523	185.52200000000002	8.0	187.523
enc	enc22	old69	6		0	1	193.52200000000002	196.521	13.0	203.52200000000002
enc	enc23	old09	5		0	1	209.52	212.52	1.0	207.52
ctl	ctl08		6		0	1	213.52	216.52	2.5	213.02
enc	enc24	old13	8		0	1	219.019	222.019	1.5	217.519
enc	enc25	old50	5		0	1	223.519	226.519	3.5	224.019
enc	enc26	old59	9		0	1	230.018	233.018	2.0	229.018
enc	enc27	old43	8		0	1	235.018	238.018	3.0	235.018
enc	enc28	old26	9		0	1	241.017	244.017	7.0	245.017
enc	enc29	old28	8		0	1	251.016	254.016	1.0	249.016
enc	enc30	old65	6		0	1	255.016	258.01599999999996	0.5	252.516
ctl	ctl09		9		0	1	258.51599999999996	261.51599999999996	1.0	256.51599999999996
ctl	ctl10		8		0	1	262.515	265.515	0.5	260.015
enc	enc31	old02	9		0	1	266.015	269.015	7.0	270.015
enc	enc32	old73	6		0	1	276.014	279.014	4.0	277.014
enc	enc33	old22	9		0	1	283.014	286.013	2.0	282.014
enc	enc34	old20	6		0	1	288.013	291.013	2.5	287.513
ctl	ctl11		5		0	1	293.513	296.512	4.5	295.013
enc	enc35	old68	5		0	1	301.012	304.012	0.5	298.512
enc	enc36	old06	9		0	1	304.512	307.51099999999997	3.0	304.512
ctl	ctl12		9		0	1	310.51099999999997	313.51099999999997	2.0	309.51099999999997
enc	enc37	old04	8		0	1	315.51099999999997	318.51	0.5	313.01099999999997
ctl	ctl13		6		0	1	319.01	322.01	1.0	317.01
ctl	ctl14		6		0	1	323.01	326.01	2.5	322.51
ctl	ctl15		6		0	1	328.51	331.509	6.5	332.01
ctl	ctl16		9		0	1	338.009	341.00800000000004	9.5	344.509
enc	enc38	old41	6		0	1	350.50800000000004	353.50699999999995	3.0	350.50800000000004
enc	enc39	old53	6		0	1	356.50699999999995	359.50699999999995	3.0	356.50699999999995
enc	enc40	old62	5		0	1	362.506	365.506	1.0	360.506
enc	enc41	old70	6		0	1	366.506	369.506	2.0	365.506
enc	enc42	old56	9		0	1	371.506	374.505	1.0	369.506
enc	enc43	old19	8		0	1	375.505	378.505	0.5	373.005
enc	enc44	old27	9		0	1	379.005	382.005	2.5	378.505
enc	enc45	old23	8		0	1	384.505	387.504	8.5	390.005
enc	enc46	old30	9		0	1	396.00300000000004	399.00300000000004	5.5	398.50300000000004
enc	enc47	old33	6		0	1	404.50300000000004	407.50199999999995	2.0	403.50300000000004
enc	enc48	old08	6		0	1	409.50199999999995	412.50199999999995	6.0	412.50199999999995
enc	enc49	old45	8		0	1	418.501	421.501	6.0	421.501
enc	enc50	old52	9		0	1	427.501	430.5	1.5	426.001
enc	enc51	old11	6		0	1	432.0	435.0	2.0	431.0
ctl	ctl17		8		0	1	437.0	440.0	1.5	435.5
enc	enc52	old47	5		0	1	441.499	444.499	4.0	442.499
ctl	ctl18		9		0	1	448.499	451.499	0.5	445.999
ctl	ctl19		8		0	1	451.99800000000005	454.99800000000005	6.0	454.99800000000005
ctl	ctl20		5		0	1	460.99800000000005	463.99699999999996	0.5	458.49800000000005
enc	enc53	old55	9		0	1	464.49699999999996	467.49699999999996	2.5	463.99699999999996
enc	enc54	old40	8		0	1	469.99699999999996	472.99699999999996	1.5	468.49699999999996
enc	enc55	old57	8		0	1	474.496	477.496	2.5	473.996
enc	enc56	old29	6		0	1	479.996	482.996	5.5	482.496
ctl	ctl21		5		0	1	488.495	491.495	4.5	489.995
enc	enc57	old54	9		0	1	495.995	498.994	2.5	495.495
ctl	ctl22		8		0	1	501.494	504.494	6.5	504.994
enc	enc58	old66	9		0	1	510.99300000000005	513.993	6.5	514.493
ctl	ctl23		9		0	1	520.492	523.492	1.5	518.992
ctl	ctl24		8		0	1	524.992	527.992	4.5	526.492
ctl	ctl25		9		0	1	532.491	535.491	1.5	530.991
ctl	ctl26		5		0	1	536.991	539.991	0.5	534.491
enc	enc59	old64	5		0	1	540.491	543.49	10.5	547.991
ctl	ctl27		6		0	1	553.989	556.989	4.5	555.489
ctl	ctl28		6		0	1	561.489	564.488	2.0	560.489
enc	enc60	old61	8		0	1	566.488	569.488	1.5	564.988
ctl	ctl29		9		0	1	570.988	573.988	12.5	580.488
enc	enc61	old10	8		0	1	586.486	589.486	2.0	585.486
enc	enc62	old37	5		0	1	591.486	594.486	1.0	589.486
enc	enc63	old77	8		0	1	595.486	598.485	4.0	596.486
ctl	ctl30		8		0	1	602.485	605.485	0.5	599.985
enc	enc64	old75	9		0	1	605.985	608.984	4.0	606.985
enc	enc65	old71	8		0	1	612.984	615.984	3.5	613.484
enc	enc66	old74	8		0	1	619.4830000000001	622.4830000000001	1.0	617.4830000000001
ctl	ctl31		8		0	1	623.4830000000001	626.4830000000001	0.5	620.9830000000001
ctl	ctl32		5		0	1	626.9830000000001	629.9830000000001	2.5	626.4830000000001
enc	enc67	old01	5		0	1	632.482	635.482	0.5	629.982
ctl	ctl33		9		0	1	635.982	638.982	9.0	641.982
ctl	ctl34		9		0	1	647.981	650.981	2.0	646.981
ctl	ctl35		6		0	1	652.98	655.98	0.5	650.48
enc	enc68	old07	9		0	1	656.48	659.48	2.0	655.48
ctl	ctl36		6		0	1	661.48	664.4789999999999	4.5	662.98
ctl	ctl37		5		0	1	668.9789999999999	671.9789999999999	4.5	670.4789999999999
ctl	ctl38		6		0	1	676.4780000000001	679.4780000000001	3.5	676.9780000000001
enc	enc69	old31	5		0	1	682.9780000000001	685.9780000000001	1.5	681.4780000000001
enc	enc70	old49	9		0	1	687.477	690.477	4.5	688.977
enc	enc71	old35	8		0	1	694.977	697.9760000000001	0.5	692.477
enc	enc72	old21	6		0	1	698.4760000000001	701.4760000000001	0.5	695.9760000000001
enc	enc73	old76	9		0	1	701.9760000000001	704.9760000000001	5.0	703.9760000000001
ctl	ctl39		9		0	1	709.975	712.975	4.5	711.475
enc	enc74	old51	5		0	1	717.475	720.4739999999999	5.5	719.975
enc	enc75	old44	6		0	1	725.9739999999999	728.9739999999999	1.0	723.9739999999999
enc	enc76	old24	5		0	1	729.9739999999999	732.9730000000001	0.5	727.4739999999999
enc	enc77	old39	5		0	1	733.4730000000001	736.4730000000001	13.5	743.9730000000001
enc	enc78	old17	8		0	1				
