trial_type	trialcode	oldnumber	correctsource	stim_resp	stim_rt	stim_acc	onset	fix_onset	fix_duration	duration
ctl	ctl0		9	1	703	0	5.088	8.088	3.0	5.088000000000001
enc	enc00		5	1	1591	0	11.088	14.087	2.0	10.088
enc	enc000		9	1	1991	0	16.087	19.087	1.0	14.087
ctl	ctl01		6	1	664	0	20.087	23.087	8.0	25.087
enc	enc01	old64	8	1	1600	0	31.086	34.086	7.5	35.586
enc	enc02	old04	5	1	1313	0	41.585	44.585	0.5	39.085
enc	enc03	old62	5	1	1269	0	45.085	48.083999999999996	6.0	48.085
enc	enc04	old41	6	1	1353	0	54.083999999999996	57.083	2.0	53.083999999999996
enc	enc05	old46	5	1	1202	0	59.083	62.083	2.0	58.083
enc	enc06	old66	9	1	1187	0	64.083	67.083	4.0	65.083
ctl	ctl02		5	1	667	0	71.082	74.082	2.5	70.582
ctl	ctl03		6	1	548	0	76.582	79.581	1.5	75.082
ctl	ctl04		6	1	544	0	81.081	84.081	5.0	83.081
ctl	ctl05		9	1	692	0	89.081	92.08	1.0	87.081
enc	enc07	old65	6	1	932	0	93.08	96.08	3.0	93.08
enc	enc08	old03	8	1	1101	0	99.08	102.079	3.0	99.08
ctl	ctl06		9	1	565	0	105.079	108.079	2.5	104.579
enc	enc09	old40	9	1	1374	0	110.579	113.57799999999999	6.5	114.079
enc	enc10	old12	5	1	1114	0	120.07799999999999	123.07799999999999	2.5	119.57799999999999
enc	enc11	old35	9	1	1047	0	125.57700000000001	128.577	2.0	124.57700000000001
enc	enc12	old30	5	1	1243	0	130.577	133.577	4.5	132.077
enc	enc13	old74	8	1	995	0	138.076	141.076	4.5	139.576
enc	enc14	old72	8	1	1288	0	145.576	148.575	2.5	145.076
enc	enc15	old69	9	1	1036	0	151.075	154.075	1.0	149.075
enc	enc16	old70	8	1	1257	0	155.075	158.07399999999998	1.5	153.575
enc	enc17	old02	5	1	1456	0	159.57399999999998	162.57399999999998	4.0	160.57399999999998
ctl	ctl07		5	1	445	0	166.574	169.57299999999998	3.0	166.574
ctl	ctl08		8	1	677	0	172.57299999999998	175.57299999999998	1.0	170.57299999999998
enc	enc18	old38	8	1	1254	0	176.57299999999998	179.57299999999998	1.0	174.57299999999998
enc	enc19	old23	8	1	1286	0	180.572	183.572	0.5	178.072
enc	enc20	old26	5	1	1471	0	184.072	187.072	3.5	184.572
enc	enc21	old76	9	1	1283	0	190.572	193.571	4.5	192.072
enc	enc22	old20	9	1	1223	0	198.071	201.071	9.5	204.571
ctl	ctl09		8	1	755	0	210.57	213.56900000000002	3.5	211.07
enc	enc23	old10	6	1	912	0	217.06900000000002	220.06900000000002	4.0	218.06900000000002
ctl	ctl10		9	1	557	0	224.06900000000002	227.06799999999998	4.0	225.06900000000002
enc	enc24	old18	8	1	1013	0	231.06799999999998	234.06799999999998	1.0	229.06799999999998
enc	enc25	old44	8	1	1174	0	235.06799999999998	238.067	6.0	238.06799999999998
enc	enc26	old19	9	1	1309	0	244.067	247.06599999999997	6.5	247.567
enc	enc27	old47	5	1	1190	0	253.56599999999997	256.566	2.0	252.56599999999997
enc	enc28	old27	6	1	987	0	258.566	261.565	1.5	257.066
enc	enc29	old49	9	1	1443	0	263.065	266.065	2.5	262.565
enc	enc30	old42	8	1	984	0	268.565	271.564	4.5	270.065
enc	enc31	old31	6	1	1115	0	276.064	279.064	0.5	273.564
enc	enc32	old13	6	1	1048	0	279.564	282.563	1.0	277.564
ctl	ctl11		6	1	636	0	283.563	286.563	1.5	282.063
enc	enc33	old01	9	1	1173	0	288.063	291.063	2.0	287.063
enc	enc34	old59	8	1	1265	0	293.062	296.062	4.0	294.062
ctl	ctl12		6	1	554	0	300.062	303.061	2.0	299.062
enc	enc35	old08	9	1	954	0	305.061	308.061	2.5	304.561
enc	enc36	old53	8	1	970	0	310.561	313.561	2.0	309.561
enc	enc37	old22	9	1	1006	0	315.56	318.56	14.5	327.06
enc	enc38	old68	6	1	1071	0	333.059	336.059	4.0	334.059
enc	enc39	old17	5	1	1180	0	340.05800000000005	343.05800000000005	1.5	338.55800000000005
ctl	ctl13		5	1	445	0	344.55800000000005	347.55699999999996	1.0	342.55800000000005
enc	enc40	old16	6	1	1369	0	348.55699999999996	351.55699999999996	3.0	348.55699999999996
ctl	ctl14		9	1	889	0	354.55699999999996	357.55699999999996	5.5	357.05699999999996
ctl	ctl15		8	1	545	0	363.056	366.056	2.0	362.056
ctl	ctl16		9	1	622	0	368.056	371.055	2.5	367.556
enc	enc41	old48	6	1	998	0	373.555	376.555	3.0	373.555
enc	enc42	old32	8	1	1035	0	379.555	382.55400000000003	3.0	379.555
enc	enc43	old33	9	1	987	0	385.55400000000003	388.55400000000003	2.0	384.55400000000003
enc	enc44	old77	5	1	859	0	390.55400000000003	393.55300000000005	5.0	392.55400000000003
enc	enc45	old58	6	1	995	0	398.55300000000005	401.55300000000005	4.5	400.05300000000005
enc	enc46	old55	9	1	972	0	406.05199999999996	409.05199999999996	10.5	413.55199999999996
ctl	ctl17		8	1	577	0	419.551	422.551	2.5	419.051
enc	enc47	old67	6	1	862	0	425.051	428.05	2.5	424.551
enc	enc48	old28	9	1	1089	0	430.55	433.55	6.0	433.55
ctl	ctl18		5	1	686	0	439.54900000000004	442.54900000000004	3.5	440.04900000000004
ctl	ctl19		5	1	551	0	446.04900000000004	449.048	1.5	444.54900000000004
enc	enc49	old25	6	1	979	0	450.548	453.548	2.5	450.048
ctl	ctl20		8	1	648	0	456.048	459.048	4.0	457.048
ctl	ctl21		9	1	500	0	463.04699999999997	466.04699999999997	2.0	462.04699999999997
enc	enc50	old07	8	1	1116	0	468.04699999999997	471.046	3.0	468.04699999999997
enc	enc51	old63	9	1	1108	0	474.046	477.046	3.0	474.046
ctl	ctl22		8	1	701	0	480.046	483.045	4.0	481.046
enc	enc52	old43	8	1	1237	0	487.045	490.045	0.5	484.545
enc	enc53	old21	9	1	1230	0	490.545	493.54400000000004	8.0	495.545
ctl	ctl23		9	1	858	0	501.54400000000004	504.543	3.0	501.54400000000004
ctl	ctl24		6	1	482	0	507.543	510.543	0.5	505.043
enc	enc54	old45	5	1	987	0	511.043	514.043	1.5	509.543
enc	enc55	old29	8	1	943	0	515.5419999999999	518.5419999999999	4.0	516.5419999999999
enc	enc56	old37	5	1	1180	0	522.5419999999999	525.5419999999999	5.0	524.5419999999999
ctl	ctl25		6	1	588	0	530.5409999999999	533.5409999999999	7.5	535.0409999999999
enc	enc57	old75	6	1	997	0	541.04	544.04	1.0	539.04
ctl	ctl26		6	1	593	0	545.04	548.04	1.5	543.54
ctl	ctl27		9	1	585	0	549.539	552.539	0.5	547.039
enc	enc58	old15	5	1	1214	0	553.039	556.039	1.5	551.539
enc	enc59	old71	6	1	1058	0	557.539	560.538	2.0	556.539
enc	enc60	old52	8	1	1294	0	562.538	565.538	1.0	560.538
ctl	ctl28		5	1	695	0	566.538	569.538	5.0	568.538
ctl	ctl29		8	1	719	0	574.5369999999999	577.5369999999999	2.0	573.5369999999999
ctl	ctl30		9	1	552	0	579.5369999999999	582.536	5.5	582.0369999999999
ctl	ctl31		6	1	567	0	588.036	591.036	0.5	585.536
enc	enc61	old36	5	1	1756	0	591.536	594.535	8.0	596.536
ctl	ctl32		5	1	752	0	602.535	605.534	1.0	600.535
enc	enc62	old57	5	1	993	0	606.534	609.534	0.5	604.034
ctl	ctl33		5	1	554	0	610.034	613.034	3.5	610.534
enc	enc63	old05	5	1	1086	0	616.533	619.533	1.5	615.033
enc	enc64	old06	9	1	1203	0	621.033	624.033	2.5	620.533
enc	enc65	old56	9	1	1510	0	626.533	629.5319999999999	9.5	633.033
enc	enc66	old78	5	1	1314	0	639.031	642.031	0.5	636.531
enc	enc67	old60	8	1	928	0	642.531	645.531	1.0	640.531
ctl	ctl34		8	1	660	0	646.531	649.53	3.0	646.531
enc	enc68	old34	6	1	1275	0	652.53	655.53	1.0	650.53
enc	enc69	old09	6	1	1268	0	656.53	659.53	2.0	655.53
ctl	ctl35		8	1	628	0	661.529	664.529	0.5	659.029
ctl	ctl36		6	1	573	0	665.029	668.029	2.0	664.029
enc	enc70	old61	5	1	1249	0	670.029	673.028	8.5	675.529
ctl	ctl37		5	1	673	0	681.528	684.5269999999999	1.5	680.028
enc	enc71	old51	6	1	606	0	686.0269999999999	689.0269999999999	1.0	684.0269999999999
enc	enc72	old11	8	1	1323	0	690.0269999999999	693.0269999999999	1.0	688.0269999999999
enc	enc73	old50	9	1	1298	0	694.0260000000001	697.0260000000001	4.0	695.0260000000001
enc	enc74	old14	8	1	1011	0	701.0260000000001	704.0260000000001	9.5	707.5260000000001
enc	enc75	old73	9	1	1171	0	713.525	716.525	4.5	715.025
ctl	ctl38		8	1	576	0	721.0239999999999	724.0239999999999	0.5	718.5239999999999
ctl	ctl39		9	1	1085	0	724.5239999999999	727.523	4.0	725.5239999999999
enc	enc76	old54	6	1	1113	0	731.523	734.523	1.0	729.523
enc	enc77	old39	5	1	1601	0	735.523	738.523	11.5	744.023
enc	enc78	old24	6	1	521	0				
