trial_type	trialcode	oldnumber	correctsource	stim_resp	stim_rt	stim_acc	onset	fix_onset	fix_duration	duration
ctl	ctl0		9	2.0	1933	0	5.099	8.099	3.0	5.099
enc	enc00		5	2.0	2396	0	11.099	14.099	2.0	10.099
enc	enc000		9	2.0	1311	0	16.099	19.098	1.0	14.099
ctl	ctl01		6	2.0	1205	0	20.098	23.098000000000003	8.0	25.098
enc	enc01	old54	8	2.0	1139	0	31.096999999999998	34.097	7.5	35.596999999999994
enc	enc02	old01	5	2.0	1770	0	41.597	44.596000000000004	0.5	39.097
enc	enc03	old59	5	2.0	1881	0	45.096000000000004	48.096000000000004	6.0	48.096000000000004
enc	enc04	old42	6	2.0	2393	0	54.096000000000004	57.095	2.0	53.096000000000004
enc	enc05	old46	5	2.0	1957	0	59.095	62.095	2.0	58.095
enc	enc06	old78	9	2.0	1960	0	64.095	67.095	4.0	65.095
ctl	ctl02		5		0	1	71.094	74.094	2.5	70.594
ctl	ctl03		6	2.0	1603	0	76.594	79.594	1.5	75.094
ctl	ctl04		6	2.0	1611	0	81.093	84.09299999999999	5.0	83.093
ctl	ctl05		9	2.0	1572	0	89.09299999999999	92.09299999999999	1.0	87.09299999999999
enc	enc07	old55	6	2.0	2774	0	93.09200000000001	96.09200000000001	3.0	93.09200000000001
enc	enc08	old09	8	2.0	2233	0	99.09200000000001	102.09200000000001	3.0	99.09200000000001
ctl	ctl06		9	2.0	1114	0	105.09200000000001	108.09100000000001	2.5	104.59200000000001
enc	enc09	old40	9	2.0	2350	0	110.59100000000001	113.59100000000001	6.5	114.09100000000001
enc	enc10	old04	5	2.0	1985	0	120.09	123.09	2.5	119.59
enc	enc11	old36	9	2.0	1957	0	125.59	128.59	2.0	124.59
enc	enc12	old39	5	2.0	1408	0	130.59	133.589	4.5	132.09
enc	enc13	old68	8	2.0	2257	0	138.089	141.089	4.5	139.589
enc	enc14	old67	8	2.0	1592	0	145.588	148.588	2.5	145.088
enc	enc15	old72	9	2.0	2267	0	151.088	154.088	1.0	149.088
enc	enc16	old73	8	2.0	2685	0	155.088	158.08700000000002	1.5	153.588
enc	enc17	old03	5	2.0	2548	0	159.58700000000002	162.58700000000002	4.0	160.58700000000002
ctl	ctl07		5	2.0	1367	0	166.58700000000002	169.58700000000002	3.0	166.58700000000002
ctl	ctl08		8	2.0	1116	0	172.58599999999998	175.58599999999998	1.0	170.58599999999998
enc	enc18	old38	8	2.0	1600	0	176.58599999999998	179.58599999999998	1.0	174.58599999999998
enc	enc19	old20	8	2.0	1659	0	180.58599999999998	183.585	0.5	178.08599999999998
enc	enc20	old18	5	2.0	2040	0	184.085	187.085	3.5	184.585
enc	enc21	old76	9	2.0	2085	0	190.585	193.585	4.5	192.085
enc	enc22	old15	9	2.0	2049	0	198.084	201.084	9.5	204.584
ctl	ctl09		8	2.0	913	0	210.583	213.583	3.5	211.083
enc	enc23	old12	6	2.0	1548	0	217.083	220.083	4.0	218.083
ctl	ctl10		9	2.0	801	0	224.082	227.082	4.0	225.082
enc	enc24	old19	8	2.0	1500	0	231.082	234.081	1.0	229.082
enc	enc25	old50	8	2.0	1679	0	235.081	238.081	6.0	238.081
enc	enc26	old24	9	2.0	2009	0	244.081	247.08	6.5	247.581
enc	enc27	old49	5	2.0	1512	0	253.58	256.58	2.0	252.58
enc	enc28	old32	6	2.0	1552	0	258.58	261.579	1.5	257.08
enc	enc29	old51	9	2.0	2132	0	263.079	266.079	2.5	262.579
enc	enc30	old44	8	2.0	1812	0	268.579	271.579	4.5	270.079
enc	enc31	old33	6	2.0	1832	0	276.078	279.078	0.5	273.578
enc	enc32	old11	6	2.0	1937	0	279.578	282.578	1.0	277.578
ctl	ctl11		6	2.0	1506	0	283.578	286.577	1.5	282.078
enc	enc33	old10	9	2.0	1877	0	288.077	291.077	2.0	287.077
enc	enc34	old64	8	2.0	1806	0	293.077	296.077	4.0	294.077
ctl	ctl12		6	2.0	1008	0	300.07599999999996	303.07599999999996	2.0	299.07599999999996
enc	enc35	old13	9	2.0	1513	0	305.07599999999996	308.07599999999996	2.5	304.57599999999996
enc	enc36	old56	8	2.0	1849	0	310.575	313.575	2.0	309.575
enc	enc37	old26	9	2.0	1668	0	315.575	318.575	14.5	327.075
enc	enc38	old66	6	2.0	2595	0	333.074	336.07300000000004	4.0	334.074
enc	enc39	old21	5	2.0	2299	0	340.07300000000004	343.07300000000004	1.5	338.57300000000004
ctl	ctl13		5	2.0	895	0	344.57300000000004	347.57300000000004	1.0	342.57300000000004
enc	enc40	old25	6	2.0	1980	0	348.57199999999995	351.57199999999995	3.0	348.57199999999995
ctl	ctl14		9	2.0	1095	0	354.57199999999995	357.57199999999995	5.5	357.07199999999995
ctl	ctl15		8	2.0	651	0	363.07099999999997	366.07099999999997	2.0	362.07099999999997
ctl	ctl16		9	2.0	1300	0	368.07099999999997	371.07099999999997	2.5	367.57099999999997
enc	enc41	old47	6	2.0	1856	0	373.57099999999997	376.57	3.0	373.57099999999997
enc	enc42	old28	8	2.0	1209	0	379.57	382.57	3.0	379.57
enc	enc43	old35	9	2.0	1032	0	385.57	388.569	2.0	384.57
enc	enc44	old69	5	2.0	1533	0	390.569	393.569	5.0	392.569
enc	enc45	old62	6	2.0	1478	0	398.569	401.56800000000004	4.5	400.069
enc	enc46	old63	9	2.0	1462	0	406.06800000000004	409.06800000000004	10.5	413.56800000000004
ctl	ctl17		8	2.0	771	0	419.56699999999995	422.56699999999995	2.5	419.06699999999995
enc	enc47	old71	6	2.0	736	0	425.066	428.066	2.5	424.566
enc	enc48	old27	9	2.0	1850	0	430.566	433.566	6.0	433.566
ctl	ctl18		5	2.0	868	0	439.565	442.565	3.5	440.065
ctl	ctl19		5	2.0	669	0	446.065	449.065	1.5	444.565
enc	enc49	old23	6	2.0	1951	0	450.565	453.564	2.5	450.065
ctl	ctl20		8	2.0	1046	0	456.064	459.064	4.0	457.064
ctl	ctl21		9	2.0	863	0	463.064	466.06300000000005	2.0	462.064
enc	enc50	old05	8	2.0	2311	0	468.06300000000005	471.06300000000005	3.0	468.06300000000005
enc	enc51	old58	9	2.0	1995	0	474.06300000000005	477.06199999999995	3.0	474.06300000000005
ctl	ctl22		8	2.0	764	0	480.06199999999995	483.06199999999995	4.0	481.06199999999995
enc	enc52	old48	8	2.0	1095	0	487.06199999999995	490.061	0.5	484.56199999999995
enc	enc53	old16	9	2.0	1108	0	490.561	493.561	8.0	495.561
ctl	ctl23		9	2.0	935	0	501.561	504.56	3.0	501.561
ctl	ctl24		6	2.0	2385	0	507.56	510.56	0.5	505.06
enc	enc54	old41	5	2.0	2104	0	511.06	514.06	1.5	509.55999999999995
enc	enc55	old34	8	2.0	1999	0	515.559	518.559	4.0	516.559
enc	enc56	old37	5	2.0	1287	0	522.559	525.559	5.0	524.559
ctl	ctl25		6	2.0	882	0	530.558	533.558	7.5	535.058
enc	enc57	old70	6	2.0	2184	0	541.057	544.057	1.0	539.057
ctl	ctl26		6	2.0	1433	0	545.057	548.057	1.5	543.557
ctl	ctl27		9	2.0	2064	0	549.557	552.557	0.5	547.057
enc	enc58	old14	5	2.0	2930	0	553.056	556.056	1.5	551.556
enc	enc59	old74	6	2.0	1386	0	557.556	560.556	2.0	556.556
enc	enc60	old52	8	2.0	1759	0	562.556	565.555	1.0	560.556
ctl	ctl28		5	2.0	838	0	566.555	569.555	5.0	568.555
ctl	ctl29		8	2.0	777	0	574.555	577.555	2.0	573.555
ctl	ctl30		9	2.0	676	0	579.554	582.554	5.5	582.054
ctl	ctl31		6	2.0	948	0	588.054	591.053	0.5	585.554
enc	enc61	old29	5	2.0	1275	0	591.553	594.553	8.0	596.553
ctl	ctl32		5	2.0	999	0	602.553	605.552	1.0	600.553
enc	enc62	old65	5	2.0	879	0	606.552	609.552	0.5	604.052
ctl	ctl33		5	2.0	942	0	610.052	613.052	3.5	610.552
enc	enc63	old02	5	2.0	2650	0	616.5509999999999	619.5509999999999	1.5	615.0509999999999
enc	enc64	old08	9	2.0	1453	0	621.0509999999999	624.0509999999999	2.5	620.5509999999999
enc	enc65	old60	9	2.0	1114	0	626.5509999999999	629.55	9.5	633.0509999999999
enc	enc66	old75	5	2.0	1217	0	639.05	642.049	0.5	636.55
enc	enc67	old57	8	2.0	834	0	642.549	645.549	1.0	640.549
ctl	ctl34		8	2.0	959	0	646.549	649.549	3.0	646.549
enc	enc68	old31	6	2.0	1358	0	652.549	655.548	1.0	650.549
enc	enc69	old07	6	2.0	1025	0	656.548	659.548	2.0	655.548
ctl	ctl35		8	2.0	1033	0	661.548	664.548	0.5	659.048
ctl	ctl36		6	2.0	811	0	665.048	668.047	2.0	664.048
enc	enc70	old61	5	2.0	1379	0	670.047	673.047	8.5	675.547
ctl	ctl37		5	2.0	912	0	681.546	684.546	1.5	680.046
enc	enc71	old43	6	2.0	1409	0	686.046	689.046	1.0	684.046
enc	enc72	old06	8	2.0	1170	0	690.046	693.046	1.0	688.046
enc	enc73	old45	9	2.0	1870	0	694.045	697.045	4.0	695.045
enc	enc74	old17	8	2.0	1926	0	701.045	704.045	9.5	707.545
enc	enc75	old77	9	2.0	1373	0	713.544	716.544	4.5	715.044
ctl	ctl38		8	2.0	808	0	721.043	724.043	0.5	718.543
ctl	ctl39		9	2.0	957	0	724.543	727.543	4.0	725.543
enc	enc76	old53	6	2.0	1129	0	731.5419999999999	734.5419999999999	1.0	729.5419999999999
enc	enc77	old30	5	2.0	1566	0	735.5419999999999	738.5419999999999	11.5	744.0419999999999
enc	enc78	old22	6	2.0	1165	0				
