trial_type	trialcode	oldnumber	correctsource	stim_resp	stim_rt	stim_acc	onset	fix_onset	fix_duration	duration
ctl	ctl0		9	2	1765	0	5.0969999999999995	8.096	3.0	5.0969999999999995
enc	enc00		5	2	1186	0	11.095999999999998	14.095999999999998	2.0	10.095999999999998
enc	enc000		9	2	1315	0	16.096	19.096	1.0	14.096
ctl	ctl01		6	2	1994	0	20.095	23.095	8.0	25.095
enc	enc01	old64	8	2	1905	0	31.094	34.094	7.5	35.594
enc	enc02	old13	5	2	1412	0	41.593	44.593	0.5	39.093
enc	enc03	old58	5	2	1480	0	45.093	48.093	6.0	48.093
enc	enc04	old46	6	2	2604	0	54.092	57.092	2.0	53.092
enc	enc05	old42	5	2	1769	0	59.092	62.092	2.0	58.092
enc	enc06	old67	9	2	2435	0	64.092	67.09100000000001	4.0	65.092
ctl	ctl02		5	2	1532	0	71.09100000000001	74.09100000000001	2.5	70.59100000000001
ctl	ctl03		6	2	1286	0	76.59	79.59	1.5	75.09
ctl	ctl04		6	2	1029	0	81.09	84.09	5.0	83.09
ctl	ctl05		9	2	912	0	89.089	92.089	1.0	87.089
enc	enc07	old60	6	2	1433	0	93.089	96.089	3.0	93.089
enc	enc08	old03	8	2	2302	0	99.088	102.088	3.0	99.088
ctl	ctl06		9	2	1377	0	105.088	108.088	2.5	104.588
enc	enc09	old50	9	2	1516	0	110.587	113.587	6.5	114.087
enc	enc10	old12	5	2	1981	0	120.086	123.086	2.5	119.586
enc	enc11	old37	9	2	1993	0	125.586	128.586	2.0	124.586
enc	enc12	old30	5	2	2100	0	130.586	133.585	4.5	132.086
enc	enc13	old71	8	2	2247	0	138.085	141.085	4.5	139.585
enc	enc14	old73	8	2	1574	0	145.584	148.584	2.5	145.084
enc	enc15	old78	9	2	2141	0	151.084	154.083	1.0	149.084
enc	enc16	old69	8	2	2189	0	155.083	158.083	1.5	153.583
enc	enc17	old09	5	2	2989	0	159.583	162.583	4.0	160.583
ctl	ctl07		5	2	1230	0	166.582	169.582	3.0	166.582
ctl	ctl08		8	2	833	0	172.582	175.582	1.0	170.582
enc	enc18	old27	8	2	1165	0	176.581	179.581	1.0	174.581
enc	enc19	old26	8	2	1716	0	180.581	183.581	0.5	178.081
enc	enc20	old25	5	2	1422	0	184.081	187.08	3.5	184.581
enc	enc21	old66	9	2	1548	0	190.58	193.58	4.5	192.08
enc	enc22	old16	9	2	1128	0	198.079	201.079	9.5	204.579
ctl	ctl09		8	2	881	0	210.578	213.578	3.5	211.078
enc	enc23	old07	6	2	1046	0	217.078	220.078	4.0	218.078
ctl	ctl10		9	2	830	0	224.077	227.077	4.0	225.077
enc	enc24	old18	8	2	882	0	231.077	234.076	1.0	229.077
enc	enc25	old43	8	2	1388	0	235.076	238.076	6.0	238.076
enc	enc26	old14	9	2	1819	0	244.075	247.075	6.5	247.575
enc	enc27	old52	5	2	1461	0	253.575	256.574	2.0	252.575
enc	enc28	old33	6	2	1253	0	258.574	261.574	1.5	257.074
enc	enc29	old47	9	2	1674	0	263.074	266.073	2.5	262.574
enc	enc30	old48	8	2	1726	0	268.573	271.573	4.5	270.073
enc	enc31	old38	6	2	1548	0	276.073	279.072	0.5	273.573
enc	enc32	old10	6	2	1208	0	279.572	282.572	1.0	277.572
ctl	ctl11		6	2	975	0	283.572	286.572	1.5	282.072
enc	enc33	old06	9	2	958	0	288.07099999999997	291.07099999999997	2.0	287.07099999999997
enc	enc34	old56	8	2	913	0	293.07099999999997	296.07099999999997	4.0	294.07099999999997
ctl	ctl12		6	2	751	0	300.07	303.07	2.0	299.07
enc	enc35	old05	9	2	887	0	305.07	308.07	2.5	304.57
enc	enc36	old54	8	2	951	0	310.569	313.569	2.0	309.569
enc	enc37	old22	9	2	891	0	315.569	318.569	14.5	327.069
enc	enc38	old76	6	2	895	0	333.06699999999995	336.06699999999995	4.0	334.06699999999995
enc	enc39	old15	5	2	1256	0	340.06699999999995	343.06699999999995	1.5	338.56699999999995
ctl	ctl13		5	2	801	0	344.566	347.566	1.0	342.566
enc	enc40	old19	6	2	929	0	348.566	351.566	3.0	348.566
ctl	ctl14		9	2	862	0	354.565	357.565	5.5	357.065
ctl	ctl15		8	2	800	0	363.065	366.064	2.0	362.065
ctl	ctl16		9	2	891	0	368.064	371.064	2.5	367.564
enc	enc41	old45	6	2	695	0	373.564	376.564	3.0	373.564
enc	enc42	old29	8	2	743	0	379.56300000000005	382.56300000000005	3.0	379.56300000000005
enc	enc43	old31	9	2	1125	0	385.56300000000005	388.56199999999995	2.0	384.56300000000005
enc	enc44	old75	5	2	1232	0	390.56199999999995	393.56199999999995	5.0	392.56199999999995
enc	enc45	old61	6	2	869	0	398.56199999999995	401.561	4.5	400.06199999999995
enc	enc46	old53	9	2	1007	0	406.061	409.061	10.5	413.561
ctl	ctl17		8	2	665	0	419.56	422.559	2.5	419.06
enc	enc47	old70	6	2	1026	0	425.059	428.059	2.5	424.559
enc	enc48	old32	9	2	833	0	430.559	433.55800000000005	6.0	433.559
ctl	ctl18		5	2	725	0	439.55800000000005	442.55800000000005	3.5	440.05800000000005
ctl	ctl19		5	2	636	0	446.05699999999996	449.05699999999996	1.5	444.55699999999996
enc	enc49	old23	6	2	920	0	450.55699999999996	453.55699999999996	2.5	450.05699999999996
ctl	ctl20		8	2	653	0	456.056	459.056	4.0	457.056
ctl	ctl21		9	2	747	0	463.056	466.056	2.0	462.056
enc	enc50	old04	8	2	739	0	468.055	471.055	3.0	468.055
enc	enc51	old63	9	2	768	0	474.055	477.055	3.0	474.055
ctl	ctl22		8	2	718	0	480.05400000000003	483.05400000000003	4.0	481.05400000000003
enc	enc52	old41	8	2	794	0	487.05400000000003	490.05300000000005	0.5	484.55400000000003
enc	enc53	old24	9	2	854	0	490.55300000000005	493.55300000000005	8.0	495.55300000000005
ctl	ctl23		9	2	890	0	501.55199999999996	504.55199999999996	3.0	501.55199999999996
ctl	ctl24		6	2	630	0	507.55199999999996	510.55199999999996	0.5	505.05199999999996
enc	enc54	old40	5	2	568	0	511.05199999999996	514.0509999999999	1.5	509.5519999999999
enc	enc55	old36	8	2	1325	0	515.5509999999999	518.5509999999999	4.0	516.5509999999999
enc	enc56	old35	5	2	962	0	522.55	525.55	5.0	524.55
ctl	ctl25		6	2	845	0	530.55	533.549	7.5	535.05
enc	enc57	old77	6	2	1141	0	541.049	544.049	1.0	539.049
ctl	ctl26		6	2	726	0	545.048	548.048	1.5	543.548
ctl	ctl27		9	2	825	0	549.548	552.548	0.5	547.048
enc	enc58	old17	5	2	1117	0	553.048	556.047	1.5	551.548
enc	enc59	old74	6	2	1288	0	557.547	560.547	2.0	556.547
enc	enc60	old49	8	2	1049	0	562.547	565.547	1.0	560.547
ctl	ctl28		5	2	699	0	566.547	569.5459999999999	5.0	568.547
ctl	ctl29		8	2	690	0	574.5459999999999	577.5459999999999	2.0	573.5459999999999
ctl	ctl30		9	2	735	0	579.545	582.545	5.5	582.045
ctl	ctl31		6	2	711	0	588.045	591.044	0.5	585.545
enc	enc61	old34	5	2	1013	0	591.544	594.544	8.0	596.544
ctl	ctl32		5	2	766	0	602.543	605.543	1.0	600.543
enc	enc62	old57	5	2	987	0	606.543	609.543	0.5	604.043
ctl	ctl33		5	2	725	0	610.043	613.0419999999999	3.5	610.543
enc	enc63	old08	5	2	1027	0	616.5419999999999	619.5419999999999	1.5	615.0419999999999
enc	enc64	old11	9	2	944	0	621.0419999999999	624.0409999999999	2.5	620.5419999999999
enc	enc65	old59	9	2	1185	0	626.5409999999999	629.5409999999999	9.5	633.0409999999999
enc	enc66	old68	5	2	1018	0	639.04	642.04	0.5	636.54
enc	enc67	old65	8	2	902	0	642.54	645.539	1.0	640.54
ctl	ctl34		8	2	825	0	646.539	649.539	3.0	646.539
enc	enc68	old28	6	2	1125	0	652.539	655.539	1.0	650.539
enc	enc69	old01	6	2	922	0	656.538	659.538	2.0	655.538
ctl	ctl35		8	2	849	0	661.538	664.538	0.5	659.038
ctl	ctl36		6	2	750	0	665.038	668.0369999999999	2.0	664.038
enc	enc70	old62	5	2	1016	0	670.0369999999999	673.0369999999999	8.5	675.5369999999999
ctl	ctl37		5	2	766	0	681.5360000000001	684.5360000000001	1.5	680.0360000000001
enc	enc71	old44	6	2	912	0	686.0360000000001	689.0360000000001	1.0	684.0360000000001
enc	enc72	old02	8	2	850	0	690.035	693.035	1.0	688.035
enc	enc73	old51	9	2	1075	0	694.035	697.035	4.0	695.035
enc	enc74	old21	8	2	1330	0	701.034	704.034	9.5	707.534
enc	enc75	old72	9	2	754	0	713.533	716.533	4.5	715.033
ctl	ctl38		8	2	826	0	721.033	724.0319999999999	0.5	718.533
ctl	ctl39		9	2	750	0	724.5319999999999	727.5319999999999	4.0	725.5319999999999
enc	enc76	old55	6	2	880	0	731.5319999999999	734.5310000000001	1.0	729.5319999999999
enc	enc77	old39	5	2	991	0	735.5310000000001	738.5310000000001	11.5	744.0310000000001
enc	enc78	old20	6	2	1008	0				
