	category	Stim	OldNumber	Recognition_ACC	Recognition_RESP	Recognition_RT	Spatial_RESP	Spatial_RT
0	New	sporting_baseball bat_new.bmp	New08	0	1	2.55	9	6143
1	OLD	vegie_green capsicum.bmp	Old75	1	1	1.896	6	3187
2	New	musical_uculele_new.bmp	New39	0	1	6.666	8	3880
3	OLD	sporting_bicycle_old.bmp	Old55	1	1	1.963	6	1636
4	New	kitchen_fork_old.bmp	New18	1	2	1.738	6	1636
5	OLD	sporting_snow shoes_old.bmp	Old64	1	1	1.971	9	2708
6	New	kitchen_baking spatula.bmp	New01	1	2	3.014	9	2708
7	OLD	food_pickle01a.bmp	Old22	1	1	1.876	9	4040
8	OLD	vegie_carrot.bmp	Old78	1	1	8.798	9	5838
9	New	animal_horse.bmp	New20	1	2	2.228	9	5838
10	OLD	musical_piano_old.bmp	Old48	1	1	1.682	8	3430
11	OLD	fruit_lemon_new.bmp	Old69	1	1	2.123	9	5014
12	OLD	food_baguette01.bmp	Old14	0	2	1.652	9	5014
13	OLD	sporting_fishing rod.bmp	Old59	1	1	1.905	6	6500
14	New	sporting_basketball_new.bmp	New14	1	2	5.734	6	6500
15	New	fruit_apricot_new.bmp	New04	1	2	1.68	6	6500
16	OLD	fruit_watermelon_old.bmp	Old71	1	1	1.7	8	3351
17	New	sporting_weighlifting.bmp	New25	1	2	1.784	8	3351
18	OLD	animal_monarch_old.bmp	Old08	1	1	1.76	6	5793
19	OLD	food_frenchfries.bmp	Old20	1	1	1.665	8	1086
20	OLD	hard_musical_recorder.bmp	Old40	1	1	2.481	8	4693
21	OLD	kitchen_tea cup and saucer.bmp	Old37	1	1	2.057	5	1950
22	New	fruit_cherry.bmp	Old67	1	1	1.519	6	1177
23	New	kitchen_kettle_new.bmp	New24	1	2	2.257	6	1177
24	OLD	fruit_blackberry_new.bmp	Old66	1	1	1.646	9	2108
25	OLD	animal_sheep.bmp	Old11	1	1	1.911	9	2266
26	OLD	food_bottleofredwine01.bmp	Old15	1	1	2.309	5	2137
27	OLD	musical_drums_old.bmp	Old46	1	1	1.418	6	1256
28	New	food_cookie01.bmp	New11	1	2	1.741	6	1256
29	OLD	food_shellpasta.bmp	Old25	1	1	1.855	9	2524
30	OLD	animal_dalmation_old.bmp	Old04	1	1	1.99	8	2910
31	New	sporting_windsurf.bmp	New31	1	2	2.689	8	2910
32	New	food_pizza.bmp	New22	1	2	1.724	8	2910
33	OLD	musical_double bass.bmp	Old45	1	1	1.911	5	1329
34	New	vegie_broccoli.bmp	New36	1	2	3.147	5	1329
35	OLD	kitchen_ladle.bmp	Old31	1	1	1.612	5	795
36	OLD	animal_lion_new.bmp	Old07	1	1	23.562	8	780
37	OLD	vegie_cauliflower.bmp	Old72	1	1	1.939	6	3949
38	OLD	food_candy.bmp	Old16	0	2	1.574	6	3949
39	OLD	kitchen_white strainer.bmp	Old38	1	1	1.51	5	633
40	OLD	musical_xylophone_old.bmp	Old52	1	1	1.631	9	765
41	OLD	animal_chimpanzee.bmp	Old03	1	1	1.509	8	736
42	OLD	vegie_mushroom.bmp	Old76	0	2	9.185	8	736
43	OLD	sporting_footballhelmet.bmp	Old57	1	1	1.738	5	2651
44	New	food_walnut01c.bmp	New34	1	2	2.104	5	2651
45	New	musical_bongo drum.bmp	New23	1	2	1.971	5	2651
46	OLD	sporting_rollerblade.bmp	Old62	1	1	2.051	5	944
47	OLD	musical_violin_old.bmp	Old51	1	1	2.674	9	4237
48	OLD	food_softcheese.bmp	Old24	1	1	3.803	6	5986
49	OLD	vegie_corn02.bmp	Old73	1	1	4.938	6	851
50	New	animal_seal.bmp	New38	1	2	2.192	6	851
51	OLD	Kitchen_apron.bmp	Old27	1	1	4.296	9	2308
52	New	kitchen_spatula_old.bmp	New37	1	2	1.687	9	2308
53	New	musical_tambourine_new.bmp	New06	1	2	2.298	9	2308
54	OLD	musical_acoustic guitar_new.bmp	Old42	1	1	2.493	5	8441
55	OLD	food_chocolatemilk.bmp	Old17	1	1	1.99	6	1198
56	New	musical_bagpipes.bmp	New35	1	2	2.084	6	1198
57	OLD	animal_parrot.bmp	Old09	1	1	1.968	9	1968
58	OLD	food_rawchicken.bmp	Old23	1	1	1.905	9	1603
59	OLD	sporting_hockey stick_old.bmp	Old58	1	1	2.826	9	777
60	New	musical_french horn_old.bmp	New12	1	2	3.137	9	777
61	OLD	sporting_americanfootball.bmp	Old53	1	1	1.923	5	5197
62	OLD	animal_penguin.bmp	Old10	1	1	1.78	8	1692
63	OLD	animal_cheetah.bmp	Old02	1	1	5.24	9	5309
64	New	sporting_flippers.bmp	New02	1	2	1.873	9	5309
65	New	sporting_golf ball.bmp	New19	1	2	1.733	9	5309
66	OLD	musical_tuba.bmp	Old50	1	1	2.182	8	4150
67	OLD	kitchen_scrubbing brush.bmp	Old36	1	1	3.391	9	6031
68	OLD	animal_siamese cat.bmp	Old12	1	1	2.916	5	5959
69	New	animal_gorilla.bmp	New15	1	2	2.649	5	5959
70	OLD	musical_clarinet_new.bmp	Old44	1	1	1.862	6	4955
71	OLD	sporting_karate clothing.bmp	Old60	1	1	3.292	9	2855
72	OLD	musical_accordion_old.bmp	Old41	1	1	8.652	6	6417
73	New	vegie_snowpea01.bmp	New27	1	2	2.656	6	6417
74	OLD	kitchen_coffee pot.bmp	Old29	1	1	1.564	9	2205
75	OLD	sporting_skipping rope.bmp	Old63	1	1	2.46	6	1017
76	OLD	kitchen_peppermill.bmp	Old33	1	1	1.535	6	1713
77	New	kitchen_garlic press.bmp	New07	1	2	1.899	6	1713
78	OLD	kitchen_wooden spoon_old.bmp	Old39	1	1	2.222	5	1324
79	OLD	fruit_green grapes.bmp	Old68	1	1	15.566	5	5984
80	OLD	animal_farm pig.bmp	Old05	1	1	3.472	8	1220
81	OLD	fruit_pineapple_old.bmp	Old70	1	1	2.01	9	2488
82	New	food_bread.bmp	New28	1	2	1.844	9	2488
83	OLD	sporting_Badminton Racquet.bmp	Old54	1	1	2.385	8	2401
84	OLD	food_croissant01.bmp	Old19	1	1	3.184	6	5208
85	OLD	musical_harmonica_new.bmp	Old47	1	1	1.991	9	2119
86	OLD	kitchen_martini glass.bmp	Old32	1	1	2.433	8	3151
87	New	food_drink.bmp	New05	1	2	1.76	8	3151
88	OLD	vegie_garlic01a.bmp	Old74	1	1	5.313	6	2965
89	OLD	kitchen_plate.bmp	Old35	1	1	1.333	5	679
90	New	vegie_cucumber.bmp	New33	0	1	1.955	8	1811
91	New	kitchen_toaster_old.bmp	New30	1	2	2.482	8	1811
92	OLD	sporting_soccer ball_new.bmp	Old65	1	1	2.533	9	1744
93	New	animal_dolphin_old.bmp	New09	1	2	1.569	9	1744
94	OLD	animal_camel_new.bmp	Old01	1	1	3.697	9	717
95	OLD	food_pecan02.bmp	Old21	1	1	3.047	5	717
96	New	animal_ostrich.bmp	New26	1	2	1.351	5	717
97	New	food_bagel01.bmp	New17	1	2	1.68	5	717
98	New	animal_giraffe.bmp	New03	1	2	1.659	5	717
99	OLD	kitchen_big cooking pot.bmp	Old28	1	1	6.072	8	8717
100	OLD	sporting_mini-trampoline.bmp	Old61	1	1	1.664	9	2876
101	OLD	animal_zebra_old.bmp	Old13	1	1	2.425	5	1975
102	OLD	animal_frog.bmp	Old06	1	1	3.862	6	4819
103	OLD	food_toast.bmp	Old26	1	1	2.962	8	843
104	OLD	sporting_boxing_gloves.bmp	Old56	1	1	2.376	5	800
105	OLD	kitchen_cookie cutter.bmp	Old30	1	1	1.903	6	2602
106	New	animal_pigeon.bmp	New32	1	2	1.825	6	2602
107	OLD	vegie_radish.bmp	Old77	1	1	2.383	6	9464
108	New	kitchen_ramekin.bmp	New13	1	2	1.693	6	9464
109	OLD	musical_triangle.bmp	Old49	1	1	1.24	9	2566
110	New	vegie_pumpkin.bmp	New21	1	2	1.318	9	2566
111	OLD	kitchen_pitcher.bmp	Old34	1	1	5.0	5	5024
112	New	fruit_rasberry.bmp	New10	1	2	3.087	5	5024
113	OLD	food_cracker02.bmp	Old18	1	1	1.545	6	1531
114	New	fruit_granny smith apple.bmp	New16	1	2	1.612	6	1531
115	New	musical_zamponia windflute.bmp	New29	1	2	1.555	6	1531
116	OLD	musical_harp_new.bmp	Old43	1	1	1.644	9	5849
