0	1	2	3	4	5	6	7	8	stim_resp	stim_rt	stim_acc
1	enc	enc00		encoding	0.061	fixation	3.0610000000000004	7.0	1.0	987	0
2	enc	enc000		encoding	10.06	fixation	13.06	4.5	1.0	1447	0
3	ctl	ctl0		control	17.56	fixation	20.56	4.5	1.0	1121	0
4	enc	enc01	old64	encoding	25.059	fixation	28.059	0.5	1.0	1784	0
5	ctl	ctl01		control	28.559	fixation	31.559	0.5	1.0	1392	0
6	enc	enc02	old12	encoding	32.059	fixation	35.059	4.5	1.0	1810	0
7	enc	enc03	old63	encoding	39.558	fixation	42.558	2.0	1.0	1310	0
8	ctl	ctl02		control	44.558	fixation	47.558	3.5	1.0	1036	0
9	ctl	ctl03		control	51.056999999999995	fixation	54.056999999999995	1.5	1.0	807	0
10	enc	enc04	old72	encoding	55.556999999999995	fixation	58.556999999999995	2.5	1.0	2105	0
11	enc	enc05	old67	encoding	61.056999999999995	fixation	64.057	1.0	1.0	1360	0
12	ctl	ctl04		control	65.056	fixation	68.056	3.0	1.0	1281	0
13	enc	enc06	old48	encoding	71.056	fixation	74.056	4.0	1.0	1631	0
14	ctl	ctl05		control	78.055	fixation	81.055	0.5	1.0	1534	0
15	enc	enc07	old55	encoding	81.555	fixation	84.555	2.5	1.0	2779	0
16	ctl	ctl06		control	87.055	fixation	90.055	2.5	1.0	1699	0
17	ctl	ctl07		control	92.554	fixation	95.554	3.5	1.0	810	0
18	enc	enc08	old08	encoding	99.054	fixation	102.054	1.0	1.0	1482	0
19	enc	enc09	old78	encoding	103.054	fixation	106.053	2.0	1.0	2407	0
20	enc	enc10	old01	encoding	108.053	fixation	111.053	0.5	1.0	1827	0
21	enc	enc11	old33	encoding	111.553	fixation	114.553	4.5	1.0	2274	0
22	enc	enc12	old34	encoding	119.052	fixation	122.052	7.0	1.0	1637	0
23	enc	enc13	old44	encoding	129.05200000000002	fixation	132.05100000000002	0.5	1.0	1876	0
24	enc	enc14	old49	encoding	132.55100000000002	fixation	135.55100000000002	2.0	1.0	1182	0
25	enc	enc15	old43	encoding	137.55100000000002	fixation	140.55100000000002	1.0	1.0	1223	0
26	enc	enc16	old41	encoding	141.55100000000002	fixation	144.55	1.0	1.0	2127	0
27	enc	enc17	old03	encoding	145.55	fixation	148.55	3.5	1.0	1325	0
28	ctl	ctl08		control	152.05	fixation	155.05	1.0	1.0	1084	0
29	enc	enc18	old28	encoding	156.05	fixation	159.049	2.0	1.0	1278	0
30	enc	enc19	old17	encoding	161.049	fixation	164.049	0.5	1.0	1334	0
31	enc	enc20	old20	encoding	164.549	fixation	167.549	3.5	1.0	2415	0
32	ctl	ctl09		control	171.049	fixation	174.048	7.0	1.0	1317	0
33	enc	enc21	old45	encoding	181.048	fixation	184.048	2.5	1.0	2139	0
34	enc	enc22	old24	encoding	186.547	fixation	189.547	5.0	1.0	2009	0
35	enc	enc23	old11	encoding	194.547	fixation	197.547	1.0	1.0	2093	0
36	enc	enc24	old25	encoding	198.546	fixation	201.546	10.0	1.0	2380	0
37	enc	enc25	old75	encoding	211.545	fixation	214.545	1.5	1.0	1546	0
38	enc	enc26	old16	encoding	216.045	fixation	219.045	0.5	1.0	1721	0
39	enc	enc27	old70	encoding	219.545	fixation	222.545	2.5	1.0	917	0
40	enc	enc28	old32	encoding	225.045	fixation	228.044	3.5	1.0	1221	0
41	ctl	ctl10		control	231.544	fixation	234.544	1.0	1.0	779	0
42	ctl	ctl11		control	235.544	fixation	238.544	0.5	1.0	664	0
43	ctl	ctl12		control	239.043	fixation	242.043	1.5	1.0	711	0
44	ctl	ctl13		control	243.543	fixation	246.543	7.0	1.0	562	0
45	enc	enc29	old68	encoding	253.542	fixation	256.54200000000003	7.0	1.0	1165	0
46	enc	enc30	old76	encoding	263.54200000000003	fixation	266.541	2.0	1.0	1006	0
47	ctl	ctl14		control	268.541	fixation	271.541	6.5	1.0	731	0
48	enc	enc31	old38	encoding	278.041	fixation	281.04	3.5	1.0	1487	0
49	enc	enc32	old02	encoding	284.54	fixation	287.54	2.5	1.0	1101	0
50	enc	enc33	old07	encoding	290.04	fixation	293.039	4.0	1.0	1298	0
51	enc	enc34	old53	encoding	297.039	fixation	300.039	3.5	1.0	2143	0
52	ctl	ctl15		control	303.539	fixation	306.538	1.0	1.0	1052	0
53	enc	enc35	old05	encoding	307.538	fixation	310.538	6.5	1.0	1234	0
54	ctl	ctl16		control	317.038	fixation	320.03700000000003	7.5	1.0	1032	0
55	ctl	ctl17		control	327.53700000000003	fixation	330.537	2.5	1.0	553	0
56	enc	enc36	old62	encoding	333.036	fixation	336.036	1.5	1.0	1983	0
57	enc	enc37	old15	encoding	337.536	fixation	340.536	1.0	1.0	1031	0
58	enc	enc38	old51	encoding	341.536	fixation	344.536	3.0	1.0	717	0
59	ctl	ctl18		control	347.535	fixation	350.535	2.5	1.0	637	0
60	enc	enc39	old21	encoding	353.035	fixation	356.035	1.0	1.0	1462	0
61	enc	enc40	old19	encoding	357.035	fixation	360.034	9.0	1.0	1719	0
62	enc	enc41	old66	encoding	369.034	fixation	372.034	1.5	1.0	2695	0
63	enc	enc42	old35	encoding	373.533	fixation	376.533	8.5	1.0	1337	0
64	enc	enc43	old39	encoding	385.033	fixation	388.032	8.0	1.0	1390	0
65	ctl	ctl19		control	396.032	fixation	399.032	1.5	1.0	656	0
66	enc	enc44	old50	encoding	400.531	fixation	403.531	5.0	1.0	1182	0
67	ctl	ctl20		control	408.531	fixation	411.531	1.0	1.0	664	0
68	ctl	ctl21		control	412.531	fixation	415.53	3.0	1.0	609	0
69	enc	enc45	old54	encoding	418.53	fixation	421.53	5.0	1.0	863	0
70	ctl	ctl22		control	426.529	fixation	429.529	0.5	1.0	703	0
71	enc	enc46	old58	encoding	430.029	fixation	433.029	1.5	1.0	1185	0
72	enc	enc47	old42	encoding	434.529	fixation	437.529	0.5	1.0	895	0
73	enc	enc48	old29	encoding	438.029	fixation	441.028	2.0	1.0	756	0
74	enc	enc49	old18	encoding	443.028	fixation	446.028	1.5	1.0	2455	0
75	enc	enc50	old10	encoding	447.528	fixation	450.528	1.0	1.0	966	0
76	enc	enc51	old61	encoding	451.528	fixation	454.527	2.5	1.0	1171	0
77	enc	enc52	old74	encoding	457.027	fixation	460.027	5.5	1.0	1073	0
78	ctl	ctl23		control	465.527	fixation	468.526	2.5	1.0	614	0
79	enc	enc53	old23	encoding	471.026	fixation	474.026	1.5		0	1
80	ctl	ctl24		control	475.526	fixation	478.526	0.5	1.0	663	0
81	enc	enc54	old73	encoding	479.026	fixation	482.025	3.0	1.0	1119	0
82	enc	enc55	old37	encoding	485.025	fixation	488.025	3.5	1.0	935	0
83	enc	enc56	old30	encoding	491.525	fixation	494.524	7.5	1.0	944	0
84	enc	enc57	old40	encoding	502.024	fixation	505.024	2.5	1.0	1034	0
85	ctl	ctl25		control	507.523	fixation	510.523	0.5	1.0	589	0
86	enc	enc58	old14	encoding	511.023	fixation	514.023	1.0	1.0	1800	0
87	enc	enc59	old46	encoding	515.023	fixation	518.023	4.0	1.0	1773	0
88	enc	enc60	old69	encoding	522.0219999999999	fixation	525.0219999999999	11.5	1.0	1099	0
89	ctl	ctl26		control	536.521	fixation	539.521	0.5	1.0	955	0
90	ctl	ctl27		control	540.021	fixation	543.021	4.0	1.0	673	0
91	ctl	ctl28		control	547.021	fixation	550.02	0.5	1.0	665	0
92	enc	enc61	old27	encoding	550.52	fixation	553.52	2.5	1.0	1502	0
93	enc	enc62	old65	encoding	556.02	fixation	559.02	3.0	1.0	879	0
94	ctl	ctl29		control	562.019	fixation	565.019	1.0	1.0	887	0
95	enc	enc63	old04	encoding	566.019	fixation	569.019	2.0	1.0	940	0
96	enc	enc64	old13	encoding	571.019	fixation	574.019	0.5	1.0	703	0
97	ctl	ctl30		control	574.518	fixation	577.518	7.0	1.0	750	0
98	enc	enc65	old57	encoding	584.518	fixation	587.518	0.5	1.0	1423	0
99	enc	enc66	old47	encoding	588.0169999999999	fixation	591.0169999999999	0.5	1.0	1390	0
100	ctl	ctl31		control	591.5169999999999	fixation	594.5169999999999	0.5	1.0	807	0
101	ctl	ctl32		control	595.0169999999999	fixation	598.0169999999999	1.5	1.0	657	0
102	enc	enc67	old59	encoding	599.5169999999999	fixation	602.516	3.0	1.0	2011	0
103	enc	enc68	old36	encoding	605.516	fixation	608.516	1.5	1.0	1349	0
104	ctl	ctl33		control	610.016	fixation	613.016	4.5	1.0	675	0
105	ctl	ctl34		control	617.515	fixation	620.515	0.5	1.0	544	0
106	enc	enc69	old09	encoding	621.015	fixation	624.015	8.0	1.0	627	0
107	enc	enc70	old56	encoding	632.014	fixation	635.014	1.0	1.0	1258	0
108	ctl	ctl35		control	636.014	fixation	639.014	4.5	1.0	892	0
109	ctl	ctl36		control	643.513	fixation	646.513	2.0	1.0	538	0
110	enc	enc71	old71	encoding	648.513	fixation	651.513	1.0	1.0	1309	0
111	enc	enc72	old06	encoding	652.513	fixation	655.512	2.0	1.0	767	0
112	ctl	ctl37		control	657.512	fixation	660.512	2.0	1.0	669	0
113	ctl	ctl38		control	662.512	fixation	665.512	10.0	1.0	598	0
114	enc	enc73	old77	encoding	675.5110000000001	fixation	678.5110000000001	3.5	1.0	721	0
115	enc	enc74	old22	encoding	682.01	fixation	685.01	9.0	1.0	505	0
116	ctl	ctl39		control	694.01	fixation	697.0089999999999	0.5	1.0	703	0
117	enc	enc75	old52	encoding	697.5089999999999	fixation	700.5089999999999	7.0	1.0	1155	0
118	enc	enc76	old60	encoding	707.5089999999999	fixation	710.508	12.5	1.0	1089	0
119	enc	enc77	old31	encoding	723.007	fixation	726.007	2.5	1.0	881	0
120	enc	enc78	old26	encoding	728.507	fixation	731.507	18.5	1.0	922	0
