trialnumber	category	trialcode	oldnumber	correctsource	stim_resp	stim_rt	stim_acc	stim_onset	fix_onset	duration
1	ctl	ctl0	nan	5	1	1703	0	4.577	7.586	0.5
2	enc	enc00	nan	8	1	1991	0	8.088	11.097	0.5
3	enc	enc000	nan	9	1	1800	0	11.598	14.607	5.5
4	ctl	ctl01	nan	8	1	1362	0	20.107	23.116	0.5
5	enc	enc01	old58	6	1	1884	0	23.617	26.626	1
6	enc	enc02	old12	5	1	2014	0	27.612	30.621	1
7	enc	enc03	old20	6	1	2539	0	31.608	34.617	1.5
8	enc	enc04	old73	9	1	2815	0	36.104	39.113	2
9	enc	enc05	old57	8	1	2103	0	41.103	44.112	3
10	enc	enc06	old49	9	nan	0	1	47.104	50.113	0.5
11	ctl	ctl02	nan	5	1	878	0	50.614	53.623	4
12	ctl	ctl03	nan	6	1	992	0	57.618	60.627	2.5
13	enc	enc07	old37	8	1	1908	0	63.118	66.127	1.5
14	ctl	ctl04	nan	8	1	824	0	67.615	70.624	2
15	enc	enc08	old46	6	1	1982	0	72.613	75.622	3.5
16	enc	enc09	old19	5	1	2040	0	79.116	82.125	0.5
17	ctl	ctl05	nan	8	1	913	0	82.626	85.635	2.5
18	enc	enc10	old30	6	1	2451	0	88.126	91.135	0.5
19	enc	enc11	old06	6	1	1543	0	91.636	94.645	1
20	enc	enc12	old21	8	1	2553	0	95.632	98.641	1.5
21	enc	enc13	old72	5	1	2572	0	100.128	103.137	2.5
22	enc	enc14	old15	9	1	1876	0	105.628	108.637	3
23	enc	enc15	old28	9	1	2480	0	111.629	114.638	1
24	enc	enc16	old36	5	1	1655	0	115.624	118.633	1.5
25	enc	enc17	old16	5	1	2212	0	120.121	123.13	1.5
26	ctl	ctl06	nan	5	1	2290	0	124.618	127.627	1
27	enc	enc18	old11	5	1	1833	0	128.63	131.639	2.5
28	enc	enc19	old48	8	1	2125	0	134.129	137.138	2.5
29	ctl	ctl07	nan	5	nan	0	1	139.629	142.638	0.5
30	enc	enc20	old69	6	1	1278	0	143.14	146.149	5.5
31	enc	enc21	old53	5	1	2687	0	151.648	154.657	5.5
32	enc	enc22	old76	6	1	1714	0	160.157	163.166	2
33	enc	enc23	old09	5	1	1709	0	165.155	168.164	1
34	enc	enc24	old03	8	1	1783	0	169.15	172.159	3
35	enc	enc25	old50	5	1	2284	0	175.152	178.16	3.5
36	enc	enc26	old59	9	1	2561	0	181.654	184.663	0.5
37	ctl	ctl08	nan	6	1	915	0	185.165	188.174	1.5
38	ctl	ctl09	nan	9	1	900	0	189.661	192.67	9.5
39	ctl	ctl10	nan	8	1	740	0	202.165	205.174	2
40	ctl	ctl11	nan	5	1	683	0	207.163	210.172	2
41	enc	enc27	old44	8	1	2205	0	212.162	215.171	1
42	ctl	ctl12	nan	9	1	1030	0	216.174	219.183	0.5
43	enc	enc28	old17	9	1	2218	0	219.684	222.693	0.5
44	ctl	ctl13	nan	6	1	828	0	223.195	226.203	2
45	enc	enc29	old29	8	1	2829	0	228.193	231.202	4.5
46	enc	enc30	old60	6	1	2054	0	235.698	238.707	3.5
47	enc	enc31	old05	9	1	1413	0	242.201	245.21	8
48	enc	enc32	old77	6	1	1950	0	253.2	256.209	9
49	enc	enc33	old23	9	1	2879	0	265.203	268.212	0.5
50	enc	enc34	old18	6	1	2571	0	268.713	271.722	2.5
51	ctl	ctl14	nan	6	1	997	0	274.213	277.222	8.5
52	enc	enc35	old75	5	1	2617	0	285.714	288.723	0.5
53	enc	enc36	old08	9	1	1547	0	289.224	292.233	5.5
54	enc	enc37	old01	8	nan	0	1	297.733	300.742	3
55	enc	enc38	old47	6	1	1568	0	303.734	306.743	4
56	ctl	ctl15	nan	6	1	1367	0	310.738	313.747	6.5
57	ctl	ctl16	nan	9	1	698	0	320.25	323.259	0.5
58	enc	enc39	old65	6	1	1530	0	323.76	326.769	11.5
59	enc	enc40	old62	5	nan	0	1	338.27	341.279	9.5
60	enc	enc41	old66	6	1	2053	0	350.774	353.783	1
61	ctl	ctl17	nan	8	1	877	0	354.769	357.778	5.5
62	enc	enc42	old63	9	1	1842	0	363.278	366.287	1.5
63	enc	enc43	old14	8	1	2316	0	367.775	370.784	1
64	enc	enc44	old35	9	1	2011	0	371.787	374.796	2
65	ctl	ctl18	nan	9	1	1239	0	376.785	379.794	3.5
66	enc	enc45	old26	8	1	2377	0	383.288	386.297	1.5
67	enc	enc46	old27	9	1	2146	0	387.784	390.793	0.5
68	ctl	ctl19	nan	8	1	986	0	391.295	394.304	2.5
69	ctl	ctl20	nan	5	1	818	0	396.794	399.803	0.5
70	ctl	ctl21	nan	5	1	743	0	400.305	403.314	2.5
71	ctl	ctl22	nan	8	1	784	0	405.805	408.814	2
72	ctl	ctl23	nan	9	1	916	0	410.803	413.812	11
73	ctl	ctl24	nan	8	1	998	0	424.811	427.82	1
74	enc	enc47	old34	6	1	2909	0	428.806	431.815	1.5
75	enc	enc48	old04	6	1	1810	0	433.303	436.312	0.5
76	enc	enc49	old45	8	1	2145	0	436.814	439.823	0.5
77	enc	enc50	old52	9	1	2538	0	440.324	443.333	2
78	enc	enc51	old07	6	nan	0	1	445.322	448.331	1
79	ctl	ctl25	nan	9	1	877	0	449.317	452.326	2
80	ctl	ctl26	nan	5	1	818	0	454.316	457.325	4
81	enc	enc52	old43	5	1	1611	0	461.32	464.329	4.5
82	enc	enc53	old54	9	1	1783	0	468.826	471.834	8.5
83	enc	enc54	old40	8	1	2237	0	480.326	483.335	1
84	enc	enc55	old56	8	1	2480	0	484.322	487.331	6
85	ctl	ctl27	nan	6	1	1988	0	493.332	496.341	1.5
86	enc	enc56	old31	6	1	2130	0	497.828	500.837	13
87	ctl	ctl28	nan	6	1	1057	0	513.826	516.835	1.5
88	enc	enc57	old55	9	1	1747	0	518.323	521.332	1.5
89	enc	enc58	old74	9	1	1482	0	522.82	525.828	7.5
90	enc	enc59	old61	5	1	2113	0	533.317	536.326	1.5
91	ctl	ctl29	nan	9	1	823	0	537.814	540.823	3.5
92	enc	enc60	old64	8	1	2182	0	544.317	547.326	1
93	ctl	ctl30	nan	8	1	751	0	548.329	551.338	1.5
94	enc	enc61	old13	8	1	2091	0	552.826	555.834	3.5
95	ctl	ctl31	nan	8	1	1857	0	559.328	562.337	4.5
96	enc	enc62	old39	5	1	2211	0	566.834	569.843	3
97	ctl	ctl32	nan	5	1	1433	0	572.835	575.844	0.5
98	enc	enc63	old78	8	1	2120	0	576.345	579.354	8
99	enc	enc64	old71	9	1	1922	0	587.345	590.354	5
100	ctl	ctl33	nan	9	1	785	0	595.352	598.361	0.5
101	ctl	ctl34	nan	9	1	1154	0	598.863	601.871	1
102	enc	enc65	old67	8	1	2307	0	602.874	605.883	11.5
103	enc	enc66	old68	8	1	2064	0	617.384	620.393	2.5
104	ctl	ctl35	nan	6	1	1329	0	622.884	625.893	2
105	enc	enc67	old10	5	1	2021	0	627.882	630.891	0.5
106	enc	enc68	old02	9	nan	0	1	631.393	634.402	1
107	enc	enc69	old32	5	1	2415	0	635.405	638.414	1
108	enc	enc70	old51	9	1	2155	0	639.417	642.425	0.5
109	enc	enc71	old38	8	1	2711	0	642.927	645.936	7.5
110	ctl	ctl36	nan	6	1	1505	0	653.425	656.434	15
111	enc	enc72	old24	6	1	1855	0	671.428	674.437	0.5
112	enc	enc73	old70	9	1	2355	0	674.939	677.948	1
113	ctl	ctl37	nan	5	1	1044	0	678.951	681.96	0.5
114	ctl	ctl38	nan	6	1	824	0	682.461	685.47	9
115	enc	enc74	old42	5	1	2850	0	694.464	697.473	6
116	enc	enc75	old41	6	1	1870	0	703.474	706.483	10.5
117	ctl	ctl39	nan	9	1	1196	0	716.981	719.99	5
118	enc	enc76	old25	5	1	1704	0	724.988	727.997	1
119	enc	enc77	old33	5	1	1649	0	729	732.009	18.5
120	enc	enc78	old22	8	1	2925	0			
