0	1	2	3	4	5	6	7	8	stim_resp	stim_rt	stim_acc
1	ctl	ctl0		control	0.078	fixation	3.077	2.0		0	1
2	enc	enc00		encoding	5.077	fixation	8.077	3.0		0	1
3	enc	enc000		encoding	11.077	fixation	14.075999999999999	2.0		0	1
4	ctl	ctl01		control	16.076	fixation	19.076	1.0		0	1
5	enc	enc01	old64	encoding	20.076	fixation	23.076	8.0		0	1
6	enc	enc02	old10	encoding	31.075	fixation	34.075	7.5		0	1
7	enc	enc03	old61	encoding	41.574	fixation	44.574	0.5		0	1
8	enc	enc04	old43	encoding	45.074	fixation	48.074	6.0		0	1
9	enc	enc05	old50	encoding	54.073	fixation	57.073	2.0		0	1
10	enc	enc06	old71	encoding	59.073	fixation	62.073	2.0		0	1
11	ctl	ctl02		control	64.07300000000001	fixation	67.072	4.0		0	1
12	ctl	ctl03		control	71.072	fixation	74.072	2.5		0	1
13	ctl	ctl04		control	76.572	fixation	79.571	1.5		0	1
14	ctl	ctl05		control	81.071	fixation	84.071	5.0		0	1
15	enc	enc07	old56	encoding	89.071	fixation	92.07	1.0		0	1
16	enc	enc08	old09	encoding	93.07	fixation	96.07	3.0		0	1
17	ctl	ctl06		control	99.07	fixation	102.07	3.0		0	1
18	enc	enc09	old47	encoding	105.069	fixation	108.069	2.5		0	1
19	enc	enc10	old08	encoding	110.569	fixation	113.569	6.5		0	1
20	enc	enc11	old31	encoding	120.068	fixation	123.068	2.5		0	1
21	enc	enc12	old32	encoding	125.568	fixation	128.567	2.0		0	1
22	enc	enc13	old66	encoding	130.567	fixation	133.567	4.5		0	1
23	enc	enc14	old75	encoding	138.067	fixation	141.066	4.5		0	1
24	enc	enc15	old78	encoding	145.566	fixation	148.566	2.5		0	1
25	enc	enc16	old77	encoding	151.066	fixation	154.065	1.0		0	1
26	enc	enc17	old11	encoding	155.065	fixation	158.065	1.5		0	1
27	ctl	ctl07		control	159.565	fixation	162.565	4.0		0	1
28	ctl	ctl08		control	166.56400000000002	fixation	169.56400000000002	3.0		0	1
29	enc	enc18	old36	encoding	172.56400000000002	fixation	175.56400000000002	1.0		0	1
30	enc	enc19	old22	encoding	176.56400000000002	fixation	179.563	1.0		0	1
31	enc	enc20	old17	encoding	180.563	fixation	183.563	0.5		0	1
32	enc	enc21	old72	encoding	184.063	fixation	187.063	3.5		0	1
33	enc	enc22	old18	encoding	190.563	fixation	193.562	4.5		0	1
34	ctl	ctl09		control	198.062	fixation	201.062	9.5		0	1
35	enc	enc23	old03	encoding	210.56099999999998	fixation	213.56099999999998	3.5		0	1
36	ctl	ctl10		control	217.06099999999998	fixation	220.06	4.0		0	1
37	enc	enc24	old15	encoding	224.06	fixation	227.06	4.0		0	1
38	enc	enc25	old49	encoding	231.05900000000003	fixation	234.05900000000003	1.0		0	1
39	enc	enc26	old23	encoding	235.05900000000003	fixation	238.05900000000003	6.0		0	1
40	enc	enc27	old52	encoding	244.058	fixation	247.058	6.5		0	1
41	enc	enc28	old35	encoding	253.558	fixation	256.557	2.0		0	1
42	enc	enc29	old46	encoding	258.557	fixation	261.557	1.5		0	1
43	enc	enc30	old51	encoding	263.057	fixation	266.057	2.5		0	1
44	enc	enc31	old38	encoding	268.557	fixation	271.556	4.5		0	1
45	enc	enc32	old05	encoding	276.056	fixation	279.056	0.5		0	1
46	ctl	ctl11		control	279.556	fixation	282.555	1.0		0	1
47	enc	enc33	old07	encoding	283.555	fixation	286.555	1.5		0	1
48	enc	enc34	old57	encoding	288.055	fixation	291.055	2.0		0	1
49	ctl	ctl12		control	293.055	fixation	296.05400000000003	4.0		0	1
50	enc	enc35	old02	encoding	300.05400000000003	fixation	303.05400000000003	2.0		0	1
51	enc	enc36	old55	encoding	305.05400000000003	fixation	308.053	2.5		0	1
52	enc	enc37	old20	encoding	310.553	fixation	313.553	2.0		0	1
53	enc	enc38	old67	encoding	315.553	fixation	318.553	14.5		0	1
54	enc	enc39	old21	encoding	333.051	fixation	336.051	4.0		0	1
55	ctl	ctl13		control	340.051	fixation	343.051	1.5		0	1
56	enc	enc40	old16	encoding	344.551	fixation	347.55	1.0		0	1
57	ctl	ctl14		control	348.55	fixation	351.55	3.0		0	1
58	ctl	ctl15		control	354.55	fixation	357.55	5.5		0	1
59	ctl	ctl16		control	363.04900000000004	fixation	366.04900000000004	2.0		0	1
60	enc	enc41	old41	encoding	368.04900000000004	fixation	371.048	2.5		0	1
61	enc	enc42	old39	encoding	373.548	fixation	376.548	3.0		0	1
62	enc	enc43	old37	encoding	379.548	fixation	382.548	3.0		0	1
63	enc	enc44	old68	encoding	385.54699999999997	fixation	388.54699999999997	2.0		0	1
64	enc	enc45	old60	encoding	390.54699999999997	fixation	393.54699999999997	5.0		0	1
65	enc	enc46	old62	encoding	398.546	fixation	401.546	4.5		0	1
66	ctl	ctl17		control	406.046	fixation	409.046	10.5		0	1
67	enc	enc47	old74	encoding	419.545	fixation	422.54400000000004	2.5		0	1
68	enc	enc48	old34	encoding	425.04400000000004	fixation	428.04400000000004	2.5		0	1
69	ctl	ctl18		control	430.54400000000004	fixation	433.54400000000004	6.0		0	1
70	ctl	ctl19		control	439.543	fixation	442.543	3.5		0	1
71	enc	enc49	old19	encoding	446.043	fixation	449.042	1.5		0	1
72	ctl	ctl20		control	450.542	fixation	453.542	2.5		0	1
73	ctl	ctl21		control	456.042	fixation	459.042	4.0		0	1
74	enc	enc50	old12	encoding	463.041	fixation	466.041	2.0		0	1
75	enc	enc51	old59	encoding	468.041	fixation	471.041	3.0		0	1
76	ctl	ctl22		control	474.04	fixation	477.04	3.0		0	1
77	enc	enc52	old42	encoding	480.04	fixation	483.04	4.0		0	1
78	enc	enc53	old24	encoding	487.039	fixation	490.039	0.5		0	1
79	ctl	ctl23		control	490.539	fixation	493.539	8.0		0	1
80	ctl	ctl24		control	501.538	fixation	504.538	3.0		0	1
81	enc	enc54	old48	encoding	507.538	fixation	510.538	0.5		0	1
82	enc	enc55	old30	encoding	511.038	fixation	514.0369999999999	1.5		0	1
83	enc	enc56	old33	encoding	515.5369999999999	fixation	518.5369999999999	4.0		0	1
84	ctl	ctl25		control	522.5369999999999	fixation	525.536	5.0		0	1
85	enc	enc57	old70	encoding	530.536	fixation	533.536	7.5		0	1
86	ctl	ctl26		control	541.035	fixation	544.035	1.0		0	1
87	ctl	ctl27		control	545.035	fixation	548.035	1.5		0	1
88	enc	enc58	old14	encoding	549.535	fixation	552.534	0.5		0	1
89	enc	enc59	old69	encoding	553.034	fixation	556.034	1.5		0	1
90	enc	enc60	old44	encoding	557.534	fixation	560.534	2.0		0	1
91	ctl	ctl28		control	562.534	fixation	565.533	1.0		0	1
92	ctl	ctl29		control	566.533	fixation	569.533	5.0		0	1
93	ctl	ctl30		control	574.533	fixation	577.5319999999999	2.0		0	1
94	ctl	ctl31		control	579.5319999999999	fixation	582.5319999999999	5.5		0	1
95	enc	enc61	old27	encoding	588.0319999999999	fixation	591.031	0.5		0	1
96	ctl	ctl32		control	591.531	fixation	594.531	8.0		0	1
97	enc	enc62	old63	encoding	602.53	fixation	605.53	1.0		0	1
98	ctl	ctl33		control	606.53	fixation	609.53	0.5		0	1
99	enc	enc63	old01	encoding	610.03	fixation	613.03	3.5		0	1
100	enc	enc64	old06	encoding	616.529	fixation	619.529	1.5		0	1
101	enc	enc65	old65	encoding	621.029	fixation	624.029	2.5		0	1
102	enc	enc66	old73	encoding	626.528	fixation	629.528	9.5		0	1
103	enc	enc67	old53	encoding	639.028	fixation	642.0269999999999	0.5		0	1
104	ctl	ctl34		control	642.5269999999999	fixation	645.5269999999999	1.0		0	1
105	enc	enc68	old29	encoding	646.5269999999999	fixation	649.5269999999999	3.0		0	1
106	enc	enc69	old13	encoding	652.526	fixation	655.5260000000001	1.0		0	1
107	ctl	ctl35		control	656.5260000000001	fixation	659.5260000000001	2.0		0	1
108	ctl	ctl36		control	661.5260000000001	fixation	664.525	0.5		0	1
109	enc	enc70	old58	encoding	665.025	fixation	668.025	2.0		0	1
110	ctl	ctl37		control	670.025	fixation	673.025	8.5		0	1
111	enc	enc71	old40	encoding	681.5239999999999	fixation	684.5239999999999	1.5		0	1
112	enc	enc72	old04	encoding	686.0239999999999	fixation	689.0239999999999	1.0		0	1
113	enc	enc73	old45	encoding	690.0239999999999	fixation	693.023	1.0		0	1
114	enc	enc74	old26	encoding	694.023	fixation	697.023	4.0		0	1
115	enc	enc75	old76	encoding	701.023	fixation	704.0219999999999	9.5		0	1
116	ctl	ctl38		control	713.5219999999999	fixation	716.5210000000001	4.5		0	1
117	ctl	ctl39		control	721.0210000000001	fixation	724.0210000000001	0.5		0	1
118	enc	enc76	old54	encoding	724.5210000000001	fixation	727.5210000000001	4.0		0	1
119	enc	enc77	old28	encoding	731.52	fixation	734.52	1.0		0	1
120	enc	enc78	old25	encoding	735.52	fixation	738.52	11.5		0	1
