trialnumber	category	trialcode	oldnumber	correctsource	stim_resp	stim_rt	stim_acc	stim_onset	fix_onset	duration
1	enc	enc00	nan	8	1	1454	0	7.515	10.524	0.5
2	enc	enc000	nan	9	1	1036	0	11.026	14.035	0.5
3	ctl	ctl0	nan	8	1	1317	0	14.536	17.545	6.5
4	enc	enc01	old54	6	1	1175	0	24.031	27.04	2
5	enc	enc02	old03	5	1	1448	0	29.03	32.039	1.5
6	enc	enc03	old26	6	1	1041	0	33.527	36.536	1
7	enc	enc04	old66	9	1	1192	0	37.539	40.548	8.5
8	enc	enc05	old59	8	1	1036	0	49.04	52.049	2
9	enc	enc06	old48	9	1	990	0	54.038	57.047	2.5
10	enc	enc07	old31	8	1	1056	0	59.538	62.547	1.5
11	ctl	ctl01	nan	8	1	980	0	64.034	67.043	1.5
12	ctl	ctl02	nan	5	1	1220	0	68.531	71.54	0.5
13	enc	enc08	old49	6	1	1115	0	72.042	75.051	0.5
14	ctl	ctl03	nan	6	1	764	0	75.552	78.561	2
15	enc	enc09	old15	5	1	934	0	80.55	83.559	1.5
16	enc	enc10	old27	6	1	1080	0	85.047	88.056	2
17	ctl	ctl04	nan	8	1	950	0	90.045	93.054	7.5
18	enc	enc11	old13	6	1	880	0	100.543	103.552	5
19	enc	enc12	old17	8	1	1678	0	108.551	111.56	1.5
20	enc	enc13	old69	5	nan	0	1	113.047	116.056	3
21	enc	enc14	old18	9	1	1550	0	119.049	122.058	1
22	enc	enc15	old28	9	1	1444	0	123.061	126.07	1.5
23	enc	enc16	old29	5	1	1295	0	127.558	130.567	8.5
24	enc	enc17	old23	5	1	1350	0	139.059	142.068	2
25	enc	enc18	old09	5	1	1393	0	144.057	147.066	1
26	ctl	ctl05	nan	8	1	971	0	148.069	151.078	1.5
27	ctl	ctl06	nan	5	1	751	0	152.566	155.575	6.5
28	enc	enc19	old50	8	1	878	0	162.077	165.086	1.5
29	enc	enc20	old71	6	1	1038	0	166.574	169.583	6.5
30	enc	enc21	old64	5	1	1085	0	176.086	179.095	3.5
31	ctl	ctl07	nan	5	1	629	0	182.589	185.598	8
32	enc	enc22	old72	6	1	1118	0	193.588	196.597	13
33	enc	enc23	old02	5	1	855	0	209.586	212.595	1
34	ctl	ctl08	nan	6	1	816	0	213.598	216.607	2.5
35	enc	enc24	old04	8	1	1124	0	219.098	222.107	1.5
36	enc	enc25	old44	5	1	1072	0	223.594	226.603	3.5
37	enc	enc26	old57	9	1	1256	0	230.097	233.106	2
38	enc	enc27	old47	8	1	1289	0	235.096	238.105	3
39	enc	enc28	old14	9	1	1138	0	241.097	244.106	7
40	enc	enc29	old36	8	1	1185	0	251.093	254.102	1
41	enc	enc30	old62	6	1	1716	0	255.089	258.098	0.5
42	ctl	ctl09	nan	9	1	712	0	258.599	261.608	1
43	ctl	ctl10	nan	8	1	874	0	262.594	265.603	0.5
44	enc	enc31	old10	9	1	927	0	266.105	269.114	7
45	enc	enc32	old74	6	1	1576	0	276.101	279.11	4
46	enc	enc33	old19	9	1	1164	0	283.106	286.115	2
47	enc	enc34	old22	6	1	1646	0	288.104	291.113	2.5
48	ctl	ctl11	nan	5	1	784	0	293.604	296.613	4.5
49	enc	enc35	old67	5	1	1044	0	301.109	304.118	0.5
50	enc	enc36	old06	9	1	1099	0	304.62	307.629	3
51	ctl	ctl12	nan	9	1	876	0	310.621	313.63	2
52	enc	enc37	old11	8	1	2075	0	315.619	318.628	0.5
53	ctl	ctl13	nan	6	1	893	0	319.13	322.139	1
54	ctl	ctl14	nan	6	1	878	0	323.142	326.151	2.5
55	ctl	ctl15	nan	6	1	1017	0	328.642	331.651	6.5
56	ctl	ctl16	nan	9	1	933	0	338.153	341.162	9.5
57	enc	enc38	old46	6	1	1206	0	350.657	353.666	3
58	enc	enc39	old61	6	1	1270	0	356.659	359.668	3
59	enc	enc40	old56	5	1	1900	0	362.66	365.669	1
60	enc	enc41	old77	6	1	1970	0	366.672	369.681	2
61	enc	enc42	old65	9	1	942	0	371.67	374.679	1
62	enc	enc43	old24	8	1	992	0	375.666	378.675	0.5
63	enc	enc44	old39	9	1	1780	0	379.176	382.185	2.5
64	enc	enc45	old25	8	nan	0	1	384.676	387.685	8.5
65	enc	enc46	old30	9	1	1082	0	396.177	399.186	5.5
66	enc	enc47	old34	6	1	1333	0	404.686	407.695	2
67	enc	enc48	old01	6	1	1319	0	409.684	412.693	6
68	enc	enc49	old51	8	1	681	0	418.694	421.703	6
69	enc	enc50	old43	9	1	1159	0	427.704	430.713	1.5
70	enc	enc51	old12	6	1	1061	0	432.201	435.21	2
71	ctl	ctl17	nan	8	1	852	0	437.199	440.208	1.5
72	enc	enc52	old45	5	1	846	0	441.696	444.705	4
73	ctl	ctl18	nan	9	1	2676	0	448.7	451.709	0.5
74	ctl	ctl19	nan	8	1	712	0	452.211	455.22	6
75	ctl	ctl20	nan	5	1	849	0	461.221	464.23	0.5
76	enc	enc53	old58	9	1	575	0	464.732	467.741	2.5
77	enc	enc54	old40	8	1	1056	0	470.231	473.24	1.5
78	enc	enc55	old63	8	1	1509	0	474.728	477.737	2.5
79	enc	enc56	old32	6	1	1332	0	480.228	483.237	5.5
80	ctl	ctl21	nan	5	1	1216	0	488.737	491.746	4.5
81	enc	enc57	old55	9	1	1274	0	496.243	499.251	2.5
82	ctl	ctl22	nan	8	1	712	0	501.742	504.751	6.5
83	enc	enc58	old70	9	1	1013	0	511.254	514.263	6.5
84	ctl	ctl23	nan	9	1	685	0	520.766	523.775	1.5
85	ctl	ctl24	nan	8	1	557	0	525.263	528.272	4.5
86	ctl	ctl25	nan	9	1	619	0	532.768	535.777	1.5
87	ctl	ctl26	nan	5	1	554	0	537.265	540.274	0.5
88	enc	enc59	old60	5	1	1833	0	540.776	543.785	10.5
89	ctl	ctl27	nan	6	nan	0	1	554.283	557.292	4.5
90	ctl	ctl28	nan	6	1	775	0	561.788	564.797	2
91	enc	enc60	old53	8	1	1181	0	566.787	569.796	1.5
92	ctl	ctl29	nan	9	1	774	0	571.283	574.292	12.5
93	enc	enc61	old05	8	1	758	0	586.78	589.789	2
94	enc	enc62	old37	5	1	1013	0	591.778	594.787	1
95	enc	enc63	old76	8	1	823	0	595.79	598.799	4
96	ctl	ctl30	nan	8	nan	0	1	602.794	605.803	0.5
97	enc	enc64	old75	9	1	1806	0	606.305	609.314	4
98	enc	enc65	old68	8	1	1055	0	613.309	616.318	3.5
99	enc	enc66	old78	8	1	1067	0	619.812	622.821	1
100	ctl	ctl31	nan	8	1	1052	0	623.824	626.833	0.5
101	ctl	ctl32	nan	5	1	640	0	627.334	630.343	2.5
102	enc	enc67	old08	5	1	674	0	632.834	635.843	0.5
103	ctl	ctl33	nan	9	1	638	0	636.344	639.353	9
104	ctl	ctl34	nan	9	1	528	0	648.347	651.356	2
105	ctl	ctl35	nan	6	1	572	0	653.345	656.354	0.5
106	enc	enc68	old07	9	1	1006	0	656.856	659.865	2
107	ctl	ctl36	nan	6	1	1063	0	661.854	664.863	4.5
108	ctl	ctl37	nan	5	1	521	0	669.36	672.369	4.5
109	ctl	ctl38	nan	6	1	959	0	676.866	679.875	3.5
110	enc	enc69	old35	5	1	581	0	683.368	686.377	1.5
111	enc	enc70	old52	9	1	1630	0	687.865	690.874	4.5
112	enc	enc71	old33	8	1	1029	0	695.371	698.38	0.5
113	enc	enc72	old21	6	1	1547	0	698.881	701.89	0.5
114	enc	enc73	old73	9	1	1245	0	702.392	705.401	5
115	ctl	ctl39	nan	9	nan	0	1	710.399	713.408	4.5
116	enc	enc74	old42	5	1	975	0	717.905	720.914	5.5
117	enc	enc75	old41	6	1	1093	0	726.414	729.423	1
118	enc	enc76	old20	5	1	831	0	730.426	733.435	0.5
119	enc	enc77	old38	5	1	1275	0	733.936	736.945	13.5
120	enc	enc78	old16	8	1	1085	0			
