trialnumber	category	trialcode	oldnumber	correctsource	stim_resp	stim_rt	stim_acc	stim_onset	fix_onset	duration
1	enc	enc00	nan	5	1	1885	0	10.015	13.024	4.5
2	enc	enc000	nan	9	1	993	0	17.521	20.53	4.5
3	ctl	ctl0	nan	9	1	1255	0	25.026	28.035	0.5
4	enc	enc01	old61	8	1	557	0	28.537	31.546	0.5
5	ctl	ctl01	nan	6	1	990	0	32.047	35.056	4.5
6	enc	enc02	old01	5	1	808	0	39.553	42.562	2
7	enc	enc03	old64	5	1	1350	0	44.551	47.56	3.5
8	ctl	ctl02	nan	5	1	1024	0	51.054	54.063	1.5
9	ctl	ctl03	nan	6	1	1096	0	55.55	58.559	2.5
10	enc	enc04	old68	6	1	1112	0	61.05	64.059	1
11	enc	enc05	old76	5	1	1228	0	65.062	68.071	3
12	ctl	ctl04	nan	6	1	1056	0	71.063	74.072	4
13	enc	enc06	old40	9	1	1319	0	78.067	81.076	0.5
14	ctl	ctl05	nan	9	1	954	0	81.578	84.587	2.5
15	enc	enc07	old54	6	1	851	0	87.077	90.086	2.5
16	ctl	ctl06	nan	9	1	984	0	92.577	95.586	3.5
17	ctl	ctl07	nan	5	1	900	0	99.08	102.089	1
18	enc	enc08	old08	8	1	1060	0	103.092	106.101	2
19	enc	enc09	old71	9	1	1104	0	108.09	111.099	0.5
20	enc	enc10	old11	5	1	1058	0	111.6	114.609	4.5
21	enc	enc11	old36	9	1	1196	0	119.106	122.115	7
22	enc	enc12	old39	5	1	994	0	129.102	132.111	0.5
23	enc	enc13	old52	8	1	1069	0	132.613	135.622	2
24	enc	enc14	old49	8	1	942	0	137.611	140.62	1
25	enc	enc15	old50	9	1	984	0	141.623	144.632	1
26	enc	enc16	old46	8	1	1108	0	145.635	148.644	3.5
27	enc	enc17	old05	5	1	976	0	152.137	155.146	1
28	ctl	ctl08	nan	8	1	897	0	156.133	159.142	2
29	enc	enc18	old29	8	1	1005	0	161.131	164.14	0.5
30	enc	enc19	old14	8	1	1079	0	164.641	167.65	3.5
31	enc	enc20	old17	5	1	1321	0	171.144	174.153	7
32	ctl	ctl09	nan	8	1	850	0	181.14	184.149	2.5
33	enc	enc21	old41	9	1	981	0	186.64	189.649	5
34	enc	enc22	old20	9	1	937	0	194.647	197.656	1
35	enc	enc23	old07	6	1	1010	0	198.642	201.651	10
36	enc	enc24	old23	8	1	1206	0	211.648	214.657	1.5
37	enc	enc25	old77	8	1	1040	0	216.144	219.153	0.5
38	enc	enc26	old22	9	1	984	0	219.655	222.664	2.5
39	enc	enc27	old70	5	1	785	0	225.155	228.164	3.5
40	enc	enc28	old37	6	1	1228	0	231.657	234.666	1
41	ctl	ctl10	nan	9	1	766	0	235.652	238.661	0.5
42	ctl	ctl11	nan	6	1	683	0	239.163	242.172	1.5
43	ctl	ctl12	nan	6	nan	0	1	243.66	246.669	7
44	ctl	ctl13	nan	5	1	715	0	253.656	256.665	7
45	enc	enc29	old72	9	1	1126	0	263.652	266.661	2
46	enc	enc30	old73	8	1	874	0	268.651	271.66	6.5
47	ctl	ctl14	nan	9	1	587	0	278.162	281.171	3.5
48	enc	enc31	old32	6	1	995	0	284.665	287.674	2.5
49	enc	enc32	old13	6	1	1052	0	290.165	293.173	4
50	enc	enc33	old12	9	1	1136	0	297.169	300.178	3.5
51	enc	enc34	old59	8	1	940	0	303.671	306.68	1
52	ctl	ctl15	nan	8	1	773	0	307.667	310.676	6.5
53	enc	enc35	old03	9	1	913	0	317.178	320.187	7.5
54	ctl	ctl16	nan	9	1	826	0	327.676	330.685	2.5
55	ctl	ctl17	nan	8	1	639	0	333.176	336.185	1.5
56	enc	enc36	old57	8	1	643	0	337.672	340.681	1
57	enc	enc37	old25	9	1	1011	0	341.668	344.677	3
58	enc	enc38	old42	6	1	855	0	347.669	350.678	2.5
59	ctl	ctl18	nan	5	1	998	0	353.169	356.177	1
60	enc	enc39	old26	5	1	1041	0	357.18	360.189	9
61	enc	enc40	old24	6	1	1398	0	369.183	372.192	1.5
62	enc	enc41	old69	6	1	715	0	373.68	376.688	8.5
63	enc	enc42	old35	8	1	937	0	385.18	388.189	8
64	enc	enc43	old38	9	1	989	0	396.18	399.189	1.5
65	ctl	ctl19	nan	5	1	813	0	400.676	403.685	5
66	enc	enc44	old47	5	1	572	0	408.684	411.693	1
67	ctl	ctl20	nan	8	1	652	0	412.696	415.704	3
68	ctl	ctl21	nan	9	1	640	0	418.697	421.706	5
69	enc	enc45	old62	6	1	1079	0	426.704	429.713	0.5
70	ctl	ctl22	nan	8	1	871	0	430.214	433.223	1.5
71	enc	enc46	old65	9	1	721	0	434.711	437.72	0.5
72	enc	enc47	old48	6	1	1144	0	438.221	441.23	2
73	enc	enc48	old34	9	1	1018	0	443.22	446.229	1.5
74	enc	enc49	old16	6	1	987	0	447.716	450.725	1
75	enc	enc50	old10	8	1	843	0	451.712	454.72	2.5
76	enc	enc51	old63	9	1	1062	0	457.211	460.22	5.5
77	enc	enc52	old66	8	1	787	0	465.72	468.729	2.5
78	ctl	ctl23	nan	9	1	854	0	471.22	474.228	1.5
79	enc	enc53	old15	9	1	562	0	475.716	478.725	0.5
80	ctl	ctl24	nan	6	1	697	0	479.227	482.236	3
81	enc	enc54	old74	5	1	602	0	485.228	488.237	3.5
82	enc	enc55	old31	8	1	1009	0	491.73	494.739	7.5
83	enc	enc56	old28	5	1	891	0	502.228	505.237	2.5
84	enc	enc57	old45	6	1	632	0	507.728	510.737	0.5
85	ctl	ctl25	nan	6	1	676	0	511.238	514.247	1
86	enc	enc58	old21	5	1	718	0	515.234	518.243	4
87	enc	enc59	old44	6	1	874	0	522.238	525.247	11.5
88	enc	enc60	old75	8	1	1030	0	536.748	539.757	0.5
89	ctl	ctl26	nan	6	1	639	0	540.258	543.267	4
90	ctl	ctl27	nan	9	1	769	0	547.262	550.271	0.5
91	ctl	ctl28	nan	5	1	477	0	550.773	553.782	2.5
92	enc	enc61	old33	5	1	229	0	556.272	559.281	3
93	enc	enc62	old56	5	1	1138	0	562.274	565.283	1
94	ctl	ctl29	nan	8	1	760	0	566.285	569.294	2
95	enc	enc63	old09	5	1	637	0	571.284	574.293	0.5
96	enc	enc64	old04	9	1	710	0	574.794	577.803	7
97	ctl	ctl30	nan	9	1	735	0	584.791	587.799	0.5
98	enc	enc65	old58	9	1	658	0	588.301	591.31	0.5
99	enc	enc66	old51	5	1	596	0	591.811	594.82	0.5
100	ctl	ctl31	nan	6	1	702	0	595.322	598.331	1.5
101	ctl	ctl32	nan	5	1	591	0	599.819	602.827	3
102	enc	enc67	old60	8	1	477	0	605.82	608.829	1.5
103	enc	enc68	old30	6	1	724	0	610.316	613.325	4.5
104	ctl	ctl33	nan	5	1	572	0	617.822	620.831	0.5
105	ctl	ctl34	nan	8	1	530	0	621.332	624.341	8
106	enc	enc69	old02	6	1	604	0	632.332	635.341	1
107	enc	enc70	old53	5	1	443	0	636.344	639.353	4.5
108	ctl	ctl35	nan	8	1	791	0	643.849	646.858	2
109	ctl	ctl36	nan	6	1	630	0	648.848	651.857	1
110	enc	enc71	old78	6	1	470	0	652.86	655.869	2
111	enc	enc72	old06	8	1	850	0	657.858	660.867	2
112	ctl	ctl37	nan	5	1	1140	0	662.856	665.865	10
113	ctl	ctl38	nan	8	1	478	0	675.861	678.87	3.5
114	enc	enc73	old67	9	1	472	0	682.364	685.373	9
115	enc	enc74	old18	8	1	697	0	694.366	697.375	0.5
116	ctl	ctl39	nan	9	1	663	0	697.877	700.886	7
117	enc	enc75	old43	9	1	592	0	707.873	710.882	12.5
118	enc	enc76	old55	6	1	971	0	723.369	726.378	2.5
119	enc	enc77	old27	5	1	754	0	728.869	731.878	18.5
120	enc	enc78	old19	6	1	726	0			
