0	1	2	3	4	5	6	7	8	stim_resp	stim_rt	stim_acc
1	ctl	ctl0		control	0.088	fixation	3.088	2.0	3.0	2594	0
2	enc	enc00		encoding	5.087	fixation	8.087	3.0	3.0	1045	0
3	enc	enc000		encoding	11.087	fixation	14.087	2.0	3.0	1082	0
4	ctl	ctl01		control	16.087	fixation	19.086	1.0	3.0	1787	0
5	enc	enc01	old61	encoding	20.086	fixation	23.086	8.0	3.0	1494	0
6	enc	enc02	old09	encoding	31.085	fixation	34.085	7.5	3.0	852	0
7	enc	enc03	old62	encoding	41.585	fixation	44.584	0.5	3.0	1708	0
8	enc	enc04	old45	encoding	45.084	fixation	48.084	6.0	3.0	1109	0
9	enc	enc05	old40	encoding	54.084	fixation	57.083	2.0	3.0	1066	0
10	enc	enc06	old78	encoding	59.083	fixation	62.083	2.0	3.0	1894	0
11	ctl	ctl02		control	64.083	fixation	67.083	4.0	3.0	1052	0
12	ctl	ctl03		control	71.082	fixation	74.082	2.5	3.0	1088	0
13	ctl	ctl04		control	76.582	fixation	79.582	1.5	3.0	983	0
14	ctl	ctl05		control	81.081	fixation	84.081	5.0	3.0	927	0
15	enc	enc07	old58	encoding	89.081	fixation	92.081	1.0	3.0	831	0
16	enc	enc08	old06	encoding	93.081	fixation	96.08	3.0	3.0	1144	0
17	ctl	ctl06		control	99.08	fixation	102.08	3.0	3.0	1046	0
18	enc	enc09	old48	encoding	105.08	fixation	108.079	2.5	3.0	833	0
19	enc	enc10	old02	encoding	110.579	fixation	113.579	6.5	3.0	853	0
20	enc	enc11	old31	encoding	120.078	fixation	123.078	2.5	3.0	713	0
21	enc	enc12	old37	encoding	125.578	fixation	128.578	2.0	3.0	1014	0
22	enc	enc13	old67	encoding	130.578	fixation	133.577	4.5	3.0	895	0
23	enc	enc14	old68	encoding	138.077	fixation	141.077	4.5		0	1
24	enc	enc15	old75	encoding	145.576	fixation	148.576	2.5	3.0	920	0
25	enc	enc16	old73	encoding	151.076	fixation	154.076	1.0	3.0	1085	0
26	enc	enc17	old13	encoding	155.076	fixation	158.075	1.5	3.0	2063	0
27	ctl	ctl07		control	159.575	fixation	162.575	4.0	3.0	957	0
28	ctl	ctl08		control	166.575	fixation	169.575	3.0	3.0	1469	0
29	enc	enc18	old35	encoding	172.574	fixation	175.574	1.0	3.0	906	0
30	enc	enc19	old14	encoding	176.574	fixation	179.574	1.0	3.0	1079	0
31	enc	enc20	old26	encoding	180.574	fixation	183.573	0.5		0	1
32	enc	enc21	old70	encoding	184.073	fixation	187.073	3.5	3.0	1859	0
33	enc	enc22	old25	encoding	190.573	fixation	193.573	4.5	3.0	744	0
34	ctl	ctl09		control	198.072	fixation	201.072	9.5	3.0	898	0
35	enc	enc23	old03	encoding	210.571	fixation	213.571	3.5	3.0	1003	0
36	ctl	ctl10		control	217.071	fixation	220.071	4.0	3.0	1461	0
37	enc	enc24	old17	encoding	224.07	fixation	227.07	4.0	3.0	1735	0
38	enc	enc25	old47	encoding	231.07	fixation	234.069	1.0	3.0	1805	0
39	enc	enc26	old15	encoding	235.069	fixation	238.069	6.0	3.0	1026	0
40	enc	enc27	old46	encoding	244.069	fixation	247.068	6.5	3.0	819	0
41	enc	enc28	old28	encoding	253.568	fixation	256.568	2.0		0	1
42	enc	enc29	old51	encoding	258.568	fixation	261.567	1.5	3.0	1101	0
43	enc	enc30	old49	encoding	263.067	fixation	266.067	2.5	3.0	794	0
44	enc	enc31	old29	encoding	268.567	fixation	271.567	4.5	3.0	758	0
45	enc	enc32	old01	encoding	276.066	fixation	279.066	0.5		0	1
46	ctl	ctl11		control	279.566	fixation	282.566	1.0	3.0	1422	0
47	enc	enc33	old08	encoding	283.566	fixation	286.565	1.5	3.0	811	0
48	enc	enc34	old54	encoding	288.065	fixation	291.065	2.0	3.0	785	0
49	ctl	ctl12		control	293.065	fixation	296.065	4.0	3.0	488	0
50	enc	enc35	old07	encoding	300.064	fixation	303.064	2.0	3.0	849	0
51	enc	enc36	old63	encoding	305.064	fixation	308.064	2.5	3.0	895	0
52	enc	enc37	old16	encoding	310.563	fixation	313.563	2.0	3.0	1282	0
53	enc	enc38	old72	encoding	315.563	fixation	318.563	14.5		0	1
54	enc	enc39	old20	encoding	333.062	fixation	336.061	4.0	3.0	721	0
55	ctl	ctl13		control	340.061	fixation	343.061	1.5	3.0	652	0
56	enc	enc40	old21	encoding	344.561	fixation	347.561	1.0	3.0	720	0
57	ctl	ctl14		control	348.561	fixation	351.56	3.0	3.0	858	0
58	ctl	ctl15		control	354.56	fixation	357.56	5.5	3.0	981	0
59	ctl	ctl16		control	363.059	fixation	366.059	2.0	3.0	926	0
60	enc	enc41	old43	encoding	368.059	fixation	371.059	2.5	3.0	1211	0
61	enc	enc42	old27	encoding	373.559	fixation	376.558	3.0		0	1
62	enc	enc43	old39	encoding	379.558	fixation	382.558	3.0	3.0	2531	0
63	enc	enc44	old69	encoding	385.558	fixation	388.557	2.0	3.0	754	0
64	enc	enc45	old55	encoding	390.557	fixation	393.557	5.0	3.0	731	0
65	enc	enc46	old59	encoding	398.557	fixation	401.556	4.5	3.0	794	0
66	ctl	ctl17		control	406.056	fixation	409.056	10.5		0	1
67	enc	enc47	old77	encoding	419.555	fixation	422.555	2.5	3.0	871	0
68	enc	enc48	old38	encoding	425.055	fixation	428.054	2.5	3.0	1311	0
69	ctl	ctl18		control	430.554	fixation	433.554	6.0		0	1
70	ctl	ctl19		control	439.553	fixation	442.553	3.5	3.0	1166	0
71	enc	enc49	old24	encoding	446.053	fixation	449.053	1.5	3.0	811	0
72	ctl	ctl20		control	450.553	fixation	453.552	2.5	3.0	965	0
73	ctl	ctl21		control	456.052	fixation	459.052	4.0	3.0	656	0
74	enc	enc50	old12	encoding	463.052	fixation	466.051	2.0	3.0	830	0
75	enc	enc51	old56	encoding	468.051	fixation	471.051	3.0	3.0	1341	0
76	ctl	ctl22		control	474.051	fixation	477.05	3.0	3.0	1125	0
77	enc	enc52	old42	encoding	480.05	fixation	483.05	4.0		0	1
78	enc	enc53	old19	encoding	487.05	fixation	490.049	0.5	3.0	2027	0
79	ctl	ctl23		control	490.549	fixation	493.549	8.0	3.0	1766	0
80	ctl	ctl24		control	501.549	fixation	504.548	3.0	3.0	663	0
81	enc	enc54	old44	encoding	507.548	fixation	510.548	0.5	3.0	685	0
82	enc	enc55	old30	encoding	511.048	fixation	514.048	1.5	3.0	977	0
83	enc	enc56	old36	encoding	515.547	fixation	518.547	4.0	3.0	775	0
84	ctl	ctl25		control	522.547	fixation	525.547	5.0		0	1
85	enc	enc57	old74	encoding	530.546	fixation	533.546	7.5	3.0	922	0
86	ctl	ctl26		control	541.045	fixation	544.045	1.0		0	1
87	ctl	ctl27		control	545.045	fixation	548.045	1.5	3.0	758	0
88	enc	enc58	old18	encoding	549.545	fixation	552.545	0.5	3.0	834	0
89	enc	enc59	old66	encoding	553.045	fixation	556.044	1.5	3.0	874	0
90	enc	enc60	old50	encoding	557.544	fixation	560.544	2.0		0	1
91	ctl	ctl28		control	562.544	fixation	565.544	1.0	3.0	1301	0
92	ctl	ctl29		control	566.543	fixation	569.543	5.0	3.0	1125	0
93	ctl	ctl30		control	574.543	fixation	577.543	2.0	3.0	681	0
94	ctl	ctl31		control	579.542	fixation	582.542	5.5	3.0	851	0
95	enc	enc61	old33	encoding	588.042	fixation	591.042	0.5	3.0	1471	0
96	ctl	ctl32		control	591.541	fixation	594.541	8.0	3.0	2189	0
97	enc	enc62	old64	encoding	602.541	fixation	605.54	1.0	3.0	2354	0
98	ctl	ctl33		control	606.54	fixation	609.54	0.5	3.0	862	0
99	enc	enc63	old10	encoding	610.04	fixation	613.04	3.5	3.0	822	0
100	enc	enc64	old04	encoding	616.54	fixation	619.539	1.5	3.0	614	0
101	enc	enc65	old65	encoding	621.039	fixation	624.039	2.5	3.0	611	0
102	enc	enc66	old76	encoding	626.539	fixation	629.539	9.5	3.0	592	0
103	enc	enc67	old57	encoding	639.038	fixation	642.038	0.5		0	1
104	ctl	ctl34		control	642.537	fixation	645.537	1.0		0	1
105	enc	enc68	old32	encoding	646.537	fixation	649.537	3.0		0	1
106	enc	enc69	old11	encoding	652.537	fixation	655.536	1.0	3.0	994	0
107	ctl	ctl35		control	656.536	fixation	659.536	2.0	3.0	1178	0
108	ctl	ctl36		control	661.536	fixation	664.536	0.5	3.0	1075	0
109	enc	enc70	old60	encoding	665.036	fixation	668.036	2.0	3.0	785	0
110	ctl	ctl37		control	670.035	fixation	673.035	8.5	3.0	679	0
111	enc	enc71	old41	encoding	681.534	fixation	684.534	1.5		0	1
112	enc	enc72	old05	encoding	686.034	fixation	689.034	1.0	3.0	488	0
113	enc	enc73	old52	encoding	690.034	fixation	693.034	1.0	3.0	956	0
114	enc	enc74	old22	encoding	694.033	fixation	697.033	4.0	3.0	804	0
115	enc	enc75	old71	encoding	701.033	fixation	704.033	9.5		0	1
116	ctl	ctl38		control	713.532	fixation	716.532	4.5	3.0	904	0
117	ctl	ctl39		control	721.031	fixation	724.031	0.5	3.0	780	0
118	enc	enc76	old53	encoding	724.531	fixation	727.531	4.0	3.0	704	0
119	enc	enc77	old34	encoding	731.531	fixation	734.53	1.0	3.0	596	0
120	enc	enc78	old23	encoding	735.53	fixation	738.53	11.5		0	1
