0	1	2	3	4	5	6	7	8	stim_resp	stim_rt	stim_acc
1	enc	enc00		encoding	0.076	fixation	3.076	4.5	3.0	1640	0
2	enc	enc000		encoding	7.575	fixation	10.575	0.5	3.0	2143	0
3	ctl	ctl0		control	11.075	fixation	14.075	0.5	3.0	2758	0
4	enc	enc01	old54	encoding	14.575	fixation	17.575	6.5	3.0	1798	0
5	enc	enc02	old11	encoding	24.074	fixation	27.074	2.0	3.0	2526	0
6	enc	enc03	old16	encoding	29.073	fixation	32.073	1.5	3.0	1981	0
7	enc	enc04	old69	encoding	33.573	fixation	36.573	1.0	3.0	1053	0
8	enc	enc05	old53	encoding	37.573	fixation	40.572	8.5	3.0	1494	0
9	enc	enc06	old44	encoding	49.072	fixation	52.071	2.0	3.0	2737	0
10	enc	enc07	old36	encoding	54.071	fixation	57.071	2.5	3.0	1490	0
11	ctl	ctl01		control	59.571	fixation	62.57	1.5	3.0	1879	0
12	ctl	ctl02		control	64.07	fixation	67.07	1.5	3.0	1554	0
13	enc	enc08	old50	encoding	68.57	fixation	71.569	0.5	3.0	1079	0
14	ctl	ctl03		control	72.069	fixation	75.069	0.5	3.0	1224	0
15	enc	enc09	old21	encoding	75.569	fixation	78.569	2.0	3.0	638	0
16	enc	enc10	old34	encoding	80.569	fixation	83.568	1.5	3.0	1486	0
17	ctl	ctl04		control	85.068	fixation	88.068	2.0	3.0	1225	0
18	enc	enc11	old05	encoding	90.068	fixation	93.067	7.5	3.0	607	0
19	enc	enc12	old19	encoding	100.567	fixation	103.566	5.0	3.0	958	0
20	enc	enc13	old76	encoding	108.566	fixation	111.566	1.5	3.0	1431	0
21	enc	enc14	old23	encoding	113.066	fixation	116.065	3.0		0	1
22	enc	enc15	old31	encoding	119.065	fixation	122.065	1.0	3.0	1209	0
23	enc	enc16	old39	encoding	123.065	fixation	126.064	1.5	3.0	24	0
24	enc	enc17	old22	encoding	127.564	fixation	130.564	8.5	3.0	778	0
25	enc	enc18	old13	encoding	139.063	fixation	142.063	2.0	3.0	878	0
26	ctl	ctl05		control	144.063	fixation	147.062	1.0	3.0	1104	0
27	ctl	ctl06		control	148.062	fixation	151.062	1.5	3.0	1239	0
28	enc	enc19	old52	encoding	152.562	fixation	155.562	6.5	3.0	1277	0
29	enc	enc20	old68	encoding	162.061	fixation	165.061	1.5	3.0	675	0
30	enc	enc21	old58	encoding	166.561	fixation	169.56	6.5	3.0	1328	0
31	ctl	ctl07		control	176.06	fixation	179.059	3.5	3.0	982	0
32	enc	enc22	old72	encoding	182.559	fixation	185.559	8.0	3.0	992	0
33	enc	enc23	old07	encoding	193.558	fixation	196.558	13.0	3.0	1141	0
34	ctl	ctl08		control	209.557	fixation	212.556	1.0	3.0	1128	0
35	enc	enc24	old09	encoding	213.556	fixation	216.556	2.5	3.0	1467	0
36	enc	enc25	old40	encoding	219.056	fixation	222.055	1.5	3.0	1397	0
37	enc	enc26	old62	encoding	223.555	fixation	226.555	3.5	3.0	1190	0
38	enc	enc27	old48	encoding	230.055	fixation	233.054	2.0	3.0	625	0
39	enc	enc28	old18	encoding	235.054	fixation	238.054	3.0	3.0	2011	0
40	enc	enc29	old29	encoding	241.054	fixation	244.053	7.0	3.0	659	0
41	enc	enc30	old65	encoding	251.053	fixation	254.052	1.0	3.0	998	0
42	ctl	ctl09		control	255.052	fixation	258.052	0.5	3.0	1321	0
43	ctl	ctl10		control	258.552	fixation	261.552	1.0	3.0	1010	0
44	enc	enc31	old01	encoding	262.552	fixation	265.551	0.5	3.0	912	0
45	enc	enc32	old75	encoding	266.051	fixation	269.051	7.0	3.0	1375	0
46	enc	enc33	old20	encoding	276.05	fixation	279.05	4.0	3.0	1508	0
47	enc	enc34	old17	encoding	283.05	fixation	286.049	2.0	3.0	1015	0
48	ctl	ctl11		control	288.049	fixation	291.049	2.5	3.0	780	0
49	enc	enc35	old70	encoding	293.549	fixation	296.548	4.5	3.0	944	0
50	enc	enc36	old06	encoding	301.048	fixation	304.048	0.5	3.0	963	0
51	ctl	ctl12		control	304.548	fixation	307.547	3.0	3.0	1329	0
52	enc	enc37	old04	encoding	310.547	fixation	313.547	2.0	3.0	872	0
53	ctl	ctl13		control	315.547	fixation	318.546	0.5	3.0	660	0
54	ctl	ctl14		control	319.046	fixation	322.046	1.0	3.0	1190	0
55	ctl	ctl15		control	323.046	fixation	326.046	2.5	3.0	1541	0
56	ctl	ctl16		control	328.546	fixation	331.545	6.5	3.0	1677	0
57	enc	enc38	old47	encoding	338.045	fixation	341.044	9.5	3.0	1354	0
58	enc	enc39	old57	encoding	350.543	fixation	353.543	3.0	3.0	1091	0
59	enc	enc40	old63	encoding	356.543	fixation	359.543	3.0	3.0	1102	0
60	enc	enc41	old71	encoding	362.542	fixation	365.542	1.0	3.0	691	0
61	enc	enc42	old59	encoding	366.542	fixation	369.542	2.0	3.0	1050	0
62	enc	enc43	old25	encoding	371.541	fixation	374.541	1.0	3.0	673	0
63	enc	enc44	old32	encoding	375.541	fixation	378.541	0.5	3.0	1076	0
64	enc	enc45	old26	encoding	379.041	fixation	382.041	2.5	3.0	1585	0
65	enc	enc46	old37	encoding	384.54	fixation	387.54	8.5	3.0	741	0
66	enc	enc47	old35	encoding	396.039	fixation	399.039	5.5	3.0	678	0
67	enc	enc48	old08	encoding	404.538	fixation	407.538	2.0	3.0	1060	0
68	enc	enc49	old41	encoding	409.538	fixation	412.538	6.0	3.0	795	0
69	enc	enc50	old45	encoding	418.537	fixation	421.537	6.0	3.0	915	0
70	enc	enc51	old02	encoding	427.536	fixation	430.536	1.5	3.0	1081	0
71	ctl	ctl17		control	432.036	fixation	435.036	2.0	3.0	937	0
72	enc	enc52	old43	encoding	437.035	fixation	440.035	1.5	3.0	30	0
73	ctl	ctl18		control	441.535	fixation	444.535	4.0	3.0	1351	0
74	ctl	ctl19		control	448.534	fixation	451.534	0.5	3.0	1181	0
75	ctl	ctl20		control	452.034	fixation	455.034	6.0	3.0	848	0
76	enc	enc53	old55	encoding	461.033	fixation	464.033	0.5	3.0	785	0
77	enc	enc54	old46	encoding	464.533	fixation	467.533	2.5	3.0	1238	0
78	enc	enc55	old64	encoding	470.032	fixation	473.032	1.5	3.0	2005	0
79	enc	enc56	old27	encoding	474.532	fixation	477.532	2.5	3.0	1183	0
80	ctl	ctl21		control	480.031	fixation	483.031	5.5	3.0	1637	0
81	enc	enc57	old56	encoding	488.531	fixation	491.53	4.5	3.0	2562	0
82	ctl	ctl22		control	496.03	fixation	499.03	2.5	3.0	699	0
83	enc	enc58	old67	encoding	501.529	fixation	504.529	6.5	3.0	946	0
84	ctl	ctl23		control	511.028	fixation	514.028	6.5	3.0	660	0
85	ctl	ctl24		control	520.528	fixation	523.527	1.5	3.0	761	0
86	ctl	ctl25		control	525.027	fixation	528.027	4.5	3.0	921	0
87	ctl	ctl26		control	532.526	fixation	535.526	1.5	3.0	1158	0
88	enc	enc59	old60	encoding	537.026	fixation	540.026	0.5	3.0	2557	0
89	ctl	ctl27		control	540.526	fixation	543.525	10.5	3.0	2486	0
90	ctl	ctl28		control	554.024	fixation	557.024	4.5	3.0	972	0
91	enc	enc60	old61	encoding	561.524	fixation	564.523	2.0	3.0	1175	0
92	ctl	ctl29		control	566.523	fixation	569.523	1.5	3.0	1262	0
93	enc	enc61	old03	encoding	571.023	fixation	574.023	12.5	3.0	1156	0
94	enc	enc62	old33	encoding	586.521	fixation	589.521	2.0	3.0	1059	0
95	enc	enc63	old78	encoding	591.521	fixation	594.521	1.0	3.0	982	0
96	ctl	ctl30		control	595.521	fixation	598.52	4.0	3.0	732	0
97	enc	enc64	old66	encoding	602.52	fixation	605.52	0.5	3.0	1828	0
98	enc	enc65	old74	encoding	606.02	fixation	609.019	4.0	3.0	1388	0
99	enc	enc66	old77	encoding	613.019	fixation	616.019	3.5	3.0	1206	0
100	ctl	ctl31		control	619.518	fixation	622.518	1.0	3.0	1166	0
101	ctl	ctl32		control	623.518	fixation	626.518	0.5	3.0	1060	0
102	enc	enc67	old12	encoding	627.018	fixation	630.017	2.5	3.0	1034	0
103	ctl	ctl33		control	632.517	fixation	635.517	0.5	3.0	1844	0
104	ctl	ctl34		control	636.017	fixation	639.017	9.0	3.0	1310	0
105	ctl	ctl35		control	648.016	fixation	651.015	2.0	3.0	1952	0
106	enc	enc68	old10	encoding	653.015	fixation	656.015	0.5	3.0	1551	0
107	ctl	ctl36		control	656.515	fixation	659.515	2.0		0	1
108	ctl	ctl37		control	661.514	fixation	664.514	4.5	3.0	1244	0
109	ctl	ctl38		control	669.014	fixation	672.013	4.5	3.0	573	0
110	enc	enc69	old38	encoding	676.513	fixation	679.513	3.5	3.0	1441	0
111	enc	enc70	old42	encoding	683.012	fixation	686.012	1.5	3.0	1263	0
112	enc	enc71	old30	encoding	687.512	fixation	690.512	4.5	3.0	1541	0
113	enc	enc72	old14	encoding	695.011	fixation	698.011	0.5	3.0	871	0
114	enc	enc73	old73	encoding	698.511	fixation	701.511	0.5	3.0	1490	0
115	ctl	ctl39		control	702.011	fixation	705.01	5.0		0	1
116	enc	enc74	old49	encoding	710.01	fixation	713.01	4.5	3.0	2243	0
117	enc	enc75	old51	encoding	717.509	fixation	720.509	5.5	3.0	1058	0
118	enc	enc76	old15	encoding	726.008	fixation	729.008	1.0	3.0	226	0
119	enc	enc77	old28	encoding	730.008	fixation	733.008	0.5	3.0	1194	0
120	enc	enc78	old24	encoding	733.508	fixation	736.508	13.5	3.0	1043	0
