0	1	2	3	4	5	6	7	8	stim_resp	stim_rt	stim_acc
1	ctl	ctl0		control	0.079	fixation	3.079	1.5		0	1
2	enc	enc00		encoding	4.579	fixation	7.578	0.5		0	1
3	enc	enc000		encoding	8.078	fixation	11.078	0.5		0	1
4	ctl	ctl01		control	11.578	fixation	14.578	5.5		0	1
5	enc	enc01	old63	encoding	20.077	fixation	23.077	0.5		0	1
6	enc	enc02	old05	encoding	23.577	fixation	26.577	1.0		0	1
7	enc	enc03	old17	encoding	27.577	fixation	30.576	1.0		0	1
8	enc	enc04	old73	encoding	31.576	fixation	34.576	1.5		0	1
9	enc	enc05	old55	encoding	36.076	fixation	39.076	2.0		0	1
10	enc	enc06	old51	encoding	41.076	fixation	44.075	3.0		0	1
11	ctl	ctl02		control	47.075	fixation	50.075	0.5		0	1
12	ctl	ctl03		control	50.575	fixation	53.575	4.0		0	1
13	enc	enc07	old33	encoding	57.574	fixation	60.574	2.5		0	1
14	ctl	ctl04		control	63.074	fixation	66.074	1.5		0	1
15	enc	enc08	old42	encoding	67.573	fixation	70.573	2.0		0	1
16	enc	enc09	old22	encoding	72.573	fixation	75.573	3.5		0	1
17	ctl	ctl05		control	79.072	fixation	82.072	0.5		0	1
18	enc	enc10	old32	encoding	82.572	fixation	85.572	2.5		0	1
19	enc	enc11	old08	encoding	88.072	fixation	91.071	0.5		0	1
20	enc	enc12	old20	encoding	91.571	fixation	94.571	1.0		0	1
21	enc	enc13	old74	encoding	95.571	fixation	98.571	1.5		0	1
22	enc	enc14	old16	encoding	100.071	fixation	103.07	2.5		0	1
23	enc	enc15	old29	encoding	105.57	fixation	108.57	3.0		0	1
24	enc	enc16	old35	encoding	111.57	fixation	114.57	1.0		0	1
25	enc	enc17	old26	encoding	115.569	fixation	118.569	1.5		0	1
26	ctl	ctl06		control	120.069	fixation	123.069	1.5		0	1
27	enc	enc18	old13	encoding	124.569	fixation	127.568	1.0		0	1
28	enc	enc19	old41	encoding	128.568	fixation	131.568	2.5		0	1
29	ctl	ctl07		control	134.068	fixation	137.068	2.5		0	1
30	enc	enc20	old72	encoding	139.567	fixation	142.567	0.5		0	1
31	enc	enc21	old62	encoding	143.067	fixation	146.067	5.5		0	1
32	enc	enc22	old67	encoding	151.566	fixation	154.566	5.5		0	1
33	enc	enc23	old12	encoding	160.066	fixation	163.066	2.0		0	1
34	enc	enc24	old04	encoding	165.065	fixation	168.065	1.0		0	1
35	enc	enc25	old44	encoding	169.065	fixation	172.065	3.0		0	1
36	enc	enc26	old53	encoding	175.065	fixation	178.064	3.5		0	1
37	ctl	ctl08		control	181.564	fixation	184.564	0.5		0	1
38	ctl	ctl09		control	185.064	fixation	188.064	1.5		0	1
39	ctl	ctl10		control	189.563	fixation	192.563	9.5		0	1
40	ctl	ctl11		control	202.062	fixation	205.062	2.0		0	1
41	enc	enc27	old46	encoding	207.062	fixation	210.062	2.0		0	1
42	ctl	ctl12		control	212.062	fixation	215.061	1.0		0	1
43	enc	enc28	old21	encoding	216.061	fixation	219.061	0.5		0	1
44	ctl	ctl13		control	219.561	fixation	222.561	0.5		0	1
45	enc	enc29	old28	encoding	223.061	fixation	226.06	2.0		0	1
46	enc	enc30	old61	encoding	228.06	fixation	231.06	4.5		0	1
47	enc	enc31	old11	encoding	235.56	fixation	238.559	3.5		0	1
48	enc	enc32	old76	encoding	242.059	fixation	245.059	8.0		0	1
49	enc	enc33	old24	encoding	253.058	fixation	256.058	9.0		0	1
50	enc	enc34	old25	encoding	265.057	fixation	268.057	0.5		0	1
51	ctl	ctl14		control	268.557	fixation	271.557	2.5		0	1
52	enc	enc35	old78	encoding	274.056	fixation	277.056	8.5		0	1
53	enc	enc36	old07	encoding	285.556	fixation	288.555	0.5		0	1
54	enc	enc37	old01	encoding	289.055	fixation	292.055	5.5		0	1
55	enc	enc38	old47	encoding	297.554	fixation	300.554	3.0		0	1
56	ctl	ctl15		control	303.554	fixation	306.554	4.0		0	1
57	ctl	ctl16		control	310.553	fixation	313.553	6.5		0	1
58	enc	enc39	old54	encoding	320.053	fixation	323.052	0.5		0	1
59	enc	enc40	old57	encoding	323.552	fixation	326.552	11.5		0	1
60	enc	enc41	old68	encoding	338.051	fixation	341.051	9.5		0	1
61	ctl	ctl17		control	350.55	fixation	353.55	1.0		0	1
62	enc	enc42	old60	encoding	354.55	fixation	357.55	5.5		0	1
63	enc	enc43	old14	encoding	363.049	fixation	366.049	1.5		0	1
64	enc	enc44	old39	encoding	367.549	fixation	370.548	1.0		0	1
65	ctl	ctl18		control	371.548	fixation	374.548	2.0		0	1
66	enc	enc45	old23	encoding	376.548	fixation	379.548	3.5		0	1
67	enc	enc46	old38	encoding	383.047	fixation	386.047	1.5		0	1
68	ctl	ctl19		control	387.547	fixation	390.547	0.5		0	1
69	ctl	ctl20		control	391.047	fixation	394.047	2.5		0	1
70	ctl	ctl21		control	396.546	fixation	399.546	0.5		0	1
71	ctl	ctl22		control	400.046	fixation	403.046	2.5		0	1
72	ctl	ctl23		control	405.546	fixation	408.545	2.0		0	1
73	ctl	ctl24		control	410.545	fixation	413.545	11.0		0	1
74	enc	enc47	old37	encoding	424.544	fixation	427.544	1.0		0	1
75	enc	enc48	old02	encoding	428.544	fixation	431.544	1.5		0	1
76	enc	enc49	old43	encoding	433.043	fixation	436.043	0.5		0	1
77	enc	enc50	old48	encoding	436.543	fixation	439.543	0.5		0	1
78	enc	enc51	old06	encoding	440.043	fixation	443.043	2.0		0	1
79	ctl	ctl25		control	445.042	fixation	448.042	1.0		0	1
80	ctl	ctl26		control	449.042	fixation	452.042	2.0		0	1
81	enc	enc52	old52	encoding	454.042	fixation	457.041	4.0		0	1
82	enc	enc53	old59	encoding	461.041	fixation	464.041	4.5		0	1
83	enc	enc54	old40	encoding	468.54	fixation	471.54	8.5		0	1
84	enc	enc55	old64	encoding	480.04	fixation	483.039	1.0		0	1
85	ctl	ctl27		control	484.039	fixation	487.039	6.0		0	1
86	enc	enc56	old36	encoding	493.038	fixation	496.038	1.5		0	1
87	ctl	ctl28		control	497.538	fixation	500.538	13.0		0	1
88	enc	enc57	old58	encoding	513.537	fixation	516.537	1.5		0	1
89	enc	enc58	old71	encoding	518.036	fixation	521.036	1.5		0	1
90	enc	enc59	old65	encoding	522.536	fixation	525.536	7.5		0	1
91	ctl	ctl29		control	533.035	fixation	536.035	1.5		0	1
92	enc	enc60	old56	encoding	537.535	fixation	540.535	3.5		0	1
93	ctl	ctl30		control	544.034	fixation	547.034	1.0		0	1
94	enc	enc61	old03	encoding	548.034	fixation	551.034	1.5		0	1
95	ctl	ctl31		control	552.534	fixation	555.533	3.5		0	1
96	enc	enc62	old30	encoding	559.033	fixation	562.033	4.5		0	1
97	ctl	ctl32		control	566.532	fixation	569.532	3.0		0	1
98	enc	enc63	old69	encoding	572.532	fixation	575.532	0.5		0	1
99	enc	enc64	old75	encoding	576.032	fixation	579.031	8.0		0	1
100	ctl	ctl33		control	587.031	fixation	590.03	5.0		0	1
101	ctl	ctl34		control	595.03	fixation	598.03	0.5		0	1
102	enc	enc65	old70	encoding	598.53	fixation	601.53	1.0		0	1
103	enc	enc66	old66	encoding	602.529	fixation	605.529	11.5		0	1
104	ctl	ctl35		control	617.028	fixation	620.028	2.5		0	1
105	enc	enc67	old10	encoding	622.528	fixation	625.528	2.0		0	1
106	enc	enc68	old09	encoding	627.527	fixation	630.527	0.5		0	1
107	enc	enc69	old27	encoding	631.027	fixation	634.027	1.0		0	1
108	enc	enc70	old45	encoding	635.027	fixation	638.027	1.0		0	1
109	enc	enc71	old31	encoding	639.026	fixation	642.026	0.5		0	1
110	ctl	ctl36		control	642.526	fixation	645.526	7.5		0	1
111	enc	enc72	old19	encoding	653.025	fixation	656.025	15.0		0	1
112	enc	enc73	old77	encoding	671.024	fixation	674.024	0.5		0	1
113	ctl	ctl37		control	674.524	fixation	677.523	1.0		0	1
114	ctl	ctl38		control	678.523	fixation	681.523	0.5		0	1
115	enc	enc74	old50	encoding	682.023	fixation	685.023	9.0		0	1
116	enc	enc75	old49	encoding	694.022	fixation	697.022	6.0		0	1
117	ctl	ctl39		control	703.021	fixation	706.021	10.5		0	1
118	enc	enc76	old15	encoding	716.52	fixation	719.52	5.0		0	1
119	enc	enc77	old34	encoding	724.519	fixation	727.519	1.0		0	1
120	enc	enc78	old18	encoding	728.519	fixation	731.519	18.5		0	1
