0	1	2	3	4	5	6	7	8	stim_resp	stim_rt	stim_acc
1	enc	enc00		encoding	0.018	fixation	3.027	4.5	3	1270	0
2	enc	enc000		encoding	7.524	fixation	10.533	0.5	3	836	0
3	ctl	ctl0		control	11.034	fixation	14.043	0.5	3	1222	0
4	enc	enc01	old63	encoding	14.545	fixation	17.554	6.5	3	1366	0
5	enc	enc02	old08	encoding	24.056	fixation	27.065	2.0	3	807	0
6	enc	enc03	old26	encoding	29.055	fixation	32.063	1.5	3	992	0
7	enc	enc04	old69	encoding	33.551	fixation	36.56	1.0	3	1128	0
8	enc	enc05	old61	encoding	37.546	fixation	40.555	8.5	3	1525	0
9	enc	enc06	old42	encoding	49.047	fixation	52.056	2.0	3	1007	0
10	enc	enc07	old30	encoding	54.046	fixation	57.055	2.5	3	1984	0
11	ctl	ctl01		control	59.545	fixation	62.554	1.5	3	869	0
12	ctl	ctl02		control	64.042	fixation	67.051	1.5	3	796	0
13	enc	enc08	old49	encoding	68.539	fixation	71.548	0.5	3	1163	0
14	ctl	ctl03		control	72.049	fixation	75.058	0.5	3	972	0
15	enc	enc09	old22	encoding	75.56	fixation	78.569	2.0	3	1277	0
16	enc	enc10	old27	encoding	80.558	fixation	83.567	1.5	3	1111	0
17	ctl	ctl04		control	85.055	fixation	88.064	2.0	3	854	0
18	enc	enc11	old03	encoding	90.053	fixation	93.062	7.5	3	1048	0
19	enc	enc12	old24	encoding	100.551	fixation	103.56	5.0	3	1102	0
20	enc	enc13	old72	encoding	108.558	fixation	111.567	1.5	3	1046	0
21	enc	enc14	old16	encoding	113.055	fixation	116.064	3.0	3	1245	0
22	enc	enc15	old36	encoding	119.056	fixation	122.065	1.0	3	1148	0
23	enc	enc16	old38	encoding	123.068	fixation	126.077	1.5	3	1528	0
24	enc	enc17	old21	encoding	127.565	fixation	130.574	8.5	3	1247	0
25	enc	enc18	old10	encoding	139.066	fixation	142.075	2.0	3	1049	0
26	ctl	ctl05		control	144.064	fixation	147.073	1.0	3	835	0
27	ctl	ctl06		control	148.076	fixation	151.085	1.5	3	607	0
28	enc	enc19	old46	encoding	152.572	fixation	155.581	6.5	3	1327	0
29	enc	enc20	old75	encoding	162.067	fixation	165.076	1.5	3	927	0
30	enc	enc21	old54	encoding	166.564	fixation	169.573	6.5	3	1062	0
31	ctl	ctl07		control	176.076	fixation	179.085	3.5	3	734	0
32	enc	enc22	old67	encoding	182.579	fixation	185.588	8.0	3	775	0
33	enc	enc23	old02	encoding	193.578	fixation	196.587	13.0	3	1183	0
34	ctl	ctl08		control	209.576	fixation	212.585	1.0	3	849	0
35	enc	enc24	old13	encoding	213.588	fixation	216.597	2.5	3	1021	0
36	enc	enc25	old40	encoding	219.087	fixation	222.096	1.5	3	1105	0
37	enc	enc26	old58	encoding	223.584	fixation	226.593	3.5	3	928	0
38	enc	enc27	old44	encoding	230.087	fixation	233.096	2.0	3	1009	0
39	enc	enc28	old20	encoding	235.085	fixation	238.094	3.0	3	1099	0
40	enc	enc29	old31	encoding	241.086	fixation	244.095	7.0	3	1170	0
41	enc	enc30	old59	encoding	251.083	fixation	254.092	1.0	3	1812	0
42	ctl	ctl09		control	255.095	fixation	258.104	0.5	3	1160	0
43	ctl	ctl10		control	258.605	fixation	261.614	1.0	3	1066	0
44	enc	enc31	old09	encoding	262.617	fixation	265.626	0.5	3	1182	0
45	enc	enc32	old76	encoding	266.127	fixation	269.136	7.0	3	1016	0
46	enc	enc33	old17	encoding	276.124	fixation	279.133	4.0	3	994	0
47	enc	enc34	old14	encoding	283.128	fixation	286.137	2.0	3	838	0
48	ctl	ctl11		control	288.126	fixation	291.135	2.5	3	744	0
49	enc	enc35	old70	encoding	293.626	fixation	296.635	4.5	3	876	0
50	enc	enc36	old04	encoding	301.132	fixation	304.141	0.5	3	1010	0
51	ctl	ctl12		control	304.642	fixation	307.651	3.0	3	812	0
52	enc	enc37	old07	encoding	310.643	fixation	313.652	2.0	3	770	0
53	ctl	ctl13		control	315.642	fixation	318.651	0.5	3	803	0
54	ctl	ctl14		control	319.152	fixation	322.161	1.0	3	701	0
55	ctl	ctl15		control	323.164	fixation	326.173	2.5	3	513	0
56	ctl	ctl16		control	328.664	fixation	331.673	6.5	3	589	0
57	enc	enc38	old43	encoding	338.175	fixation	341.184	9.5	3	589	0
58	enc	enc39	old65	encoding	350.679	fixation	353.688	3.0	3	581	0
59	enc	enc40	old57	encoding	356.681	fixation	359.69	3.0	3	939	0
60	enc	enc41	old68	encoding	362.682	fixation	365.691	1.0	3	762	0
61	enc	enc42	old62	encoding	366.694	fixation	369.703	2.0	3	973	0
62	enc	enc43	old23	encoding	371.692	fixation	374.701	1.0	3	967	0
63	enc	enc44	old34	encoding	375.704	fixation	378.713	0.5	3	1243	0
64	enc	enc45	old25	encoding	379.214	fixation	382.223	2.5	3	2117	0
65	enc	enc46	old32	encoding	384.714	fixation	387.723	8.5	3	1057	0
66	enc	enc47	old35	encoding	396.215	fixation	399.224	5.5	3	819	0
67	enc	enc48	old01	encoding	404.724	fixation	407.733	2.0	3	806	0
68	enc	enc49	old52	encoding	409.722	fixation	412.731	6.0	3	992	0
69	enc	enc50	old41	encoding	418.732	fixation	421.741	6.0	3	1030	0
70	enc	enc51	old05	encoding	427.742	fixation	430.751	1.5	3	787	0
71	ctl	ctl17		control	432.239	fixation	435.248	2.0	3	794	0
72	enc	enc52	old51	encoding	437.237	fixation	440.246	1.5	3	1116	0
73	ctl	ctl18		control	441.734	fixation	444.743	4.0	3	699	0
74	ctl	ctl19		control	448.738	fixation	451.747	0.5	3	567	0
75	ctl	ctl20		control	452.249	fixation	455.258	6.0	3	655	0
76	enc	enc53	old60	encoding	461.259	fixation	464.268	0.5	3	1173	0
77	enc	enc54	old50	encoding	464.769	fixation	467.778	2.5	3	1703	0
78	enc	enc55	old53	encoding	470.269	fixation	473.278	1.5	3	1307	0
79	enc	enc56	old28	encoding	474.766	fixation	477.775	2.5	3	1034	0
80	ctl	ctl21		control	480.265	fixation	483.274	5.5	3	735	0
81	enc	enc57	old55	encoding	488.774	fixation	491.783	4.5	3	849	0
82	ctl	ctl22		control	496.28	fixation	499.289	2.5	3	679	0
83	enc	enc58	old73	encoding	501.779	fixation	504.788	6.5	3	628	0
84	ctl	ctl23		control	511.274	fixation	514.283	6.5	3	644	0
85	ctl	ctl24		control	520.769	fixation	523.778	1.5	3	645	0
86	ctl	ctl25		control	525.266	fixation	528.275	4.5	3	812	0
87	ctl	ctl26		control	532.772	fixation	535.781	1.5	3	610	0
88	enc	enc59	old56	encoding	537.269	fixation	540.278	0.5	3	1697	0
89	ctl	ctl27		control	540.779	fixation	543.788	10.5	3	858	0
90	ctl	ctl28		control	554.286	fixation	557.295	4.5	3	599	0
91	enc	enc60	old64	encoding	561.792	fixation	564.801	2.0	3	1589	0
92	ctl	ctl29		control	566.79	fixation	569.799	1.5	3	703	0
93	enc	enc61	old06	encoding	571.287	fixation	574.296	12.5	3	845	0
94	enc	enc62	old33	encoding	586.783	fixation	589.792	2.0	3	997	0
95	enc	enc63	old66	encoding	591.781	fixation	594.79	1.0	3	751	0
96	ctl	ctl30		control	595.793	fixation	598.802	4.0	3	2466	0
97	enc	enc64	old77	encoding	602.797	fixation	605.806	0.5	3	1038	0
98	enc	enc65	old78	encoding	606.308	fixation	609.317	4.0	3	743	0
99	enc	enc66	old71	encoding	613.312	fixation	616.321	3.5	3	955	0
100	ctl	ctl31		control	619.814	fixation	622.823	1.0	3	709	0
101	ctl	ctl32		control	623.81	fixation	626.819	0.5	3	841	0
102	enc	enc67	old11	encoding	627.32	fixation	630.329	2.5	3	850	0
103	ctl	ctl33		control	632.82	fixation	635.829	0.5	3	750	0
104	ctl	ctl34		control	636.33	fixation	639.339	9.0	3	752	0
105	ctl	ctl35		control	648.333	fixation	651.342	2.0	3	613	0
106	enc	enc68	old12	encoding	653.331	fixation	656.34	0.5	3	1015	0
107	ctl	ctl36		control	656.841	fixation	659.85	2.0	3	969	0
108	ctl	ctl37		control	661.84	fixation	664.849	4.5	3	649	0
109	ctl	ctl38		control	669.345	fixation	672.354	4.5	3	568	0
110	enc	enc69	old29	encoding	676.851	fixation	679.86	3.5	3	734	0
111	enc	enc70	old47	encoding	683.354	fixation	686.363	1.5	3	1287	0
112	enc	enc71	old39	encoding	687.85	fixation	690.859	4.5	3	998	0
113	enc	enc72	old18	encoding	695.356	fixation	698.365	0.5	3	924	0
114	enc	enc73	old74	encoding	698.867	fixation	701.876	0.5	3	1013	0
115	ctl	ctl39		control	702.377	fixation	705.386	5.0	3	759	0
116	enc	enc74	old45	encoding	710.384	fixation	713.393	4.5	3	888	0
117	enc	enc75	old48	encoding	717.89	fixation	720.899	5.5	3	901	0
118	enc	enc76	old15	encoding	726.399	fixation	729.408	1.0	3	1008	0
119	enc	enc77	old37	encoding	730.411	fixation	733.42	0.5	3	1052	0
120	enc	enc78	old19	encoding	733.921	fixation	736.93	13.5	3	1134	0
